%time,field.header.seq,field.header.stamp,field.header.frame_id,field.orientation.x,field.orientation.y,field.orientation.z,field.orientation.w,field.orientation_covariance0,field.orientation_covariance1,field.orientation_covariance2,field.orientation_covariance3,field.orientation_covariance4,field.orientation_covariance5,field.orientation_covariance6,field.orientation_covariance7,field.orientation_covariance8,field.angular_velocity.x,field.angular_velocity.y,field.angular_velocity.z,field.angular_velocity_covariance0,field.angular_velocity_covariance1,field.angular_velocity_covariance2,field.angular_velocity_covariance3,field.angular_velocity_covariance4,field.angular_velocity_covariance5,field.angular_velocity_covariance6,field.angular_velocity_covariance7,field.angular_velocity_covariance8,field.linear_acceleration.x,field.linear_acceleration.y,field.linear_acceleration.z,field.linear_acceleration_covariance0,field.linear_acceleration_covariance1,field.linear_acceleration_covariance2,field.linear_acceleration_covariance3,field.linear_acceleration_covariance4,field.linear_acceleration_covariance5,field.linear_acceleration_covariance6,field.linear_acceleration_covariance7,field.linear_acceleration_covariance8
1489584291561542308,0,1489584291559254343,,45.4622917175,-166.991043091,29.8578338623,3733.95678711,1.0,0.0,0.0,0.0,1.0,0.0,0.0,0.0,1.0,-0.243902444839,-4.08536577225,1.64634156227,1.0,0.0,0.0,0.0,1.0,0.0,0.0,0.0,1.0,0.502782348633,-3.37582434082,11.7938373779,1.0,0.0,0.0,0.0,1.0,0.0,0.0,0.0,1.0
1489584291583320608,1,1489584291581417070,,45.301990509,-167.108901978,29.5465450287,0.00353899993934,1.0,0.0,0.0,0.0,1.0,0.0,0.0,0.0,1.0,0.0,-0.914634168148,0.12195122242,1.0,0.0,0.0,0.0,1.0,0.0,0.0,0.0,1.0,1.71903679199,-2.86825358887,9.8545340332,1.0,0.0,0.0,0.0,1.0,0.0,0.0,0.0,1.0
1489584291606732396,2,1489584291603568234,,45.384967804,-166.828857422,29.1117725372,0.00255100009963,1.0,0.0,0.0,0.0,1.0,0.0,0.0,0.0,1.0,-0.731707334518,2.01219511032,-1.70731711388,1.0,0.0,0.0,0.0,1.0,0.0,0.0,0.0,1.0,1.51313544922,-3.42370837402,10.0508585693,1.0,0.0,0.0,0.0,1.0,0.0,0.0,0.0,1.0
1489584291633424074,3,1489584291630549651,,45.9614562988,-166.054336548,28.987039566,0.0041579999961,1.0,0.0,0.0,0.0,1.0,0.0,0.0,0.0,1.0,-0.487804889679,3.7804877758,-2.5,1.0,0.0,0.0,0.0,1.0,0.0,0.0,0.0,1.0,2.59052619629,-3.19865341797,9.99818613281,1.0,0.0,0.0,0.0,1.0,0.0,0.0,0.0,1.0
1489584291656314143,4,1489584291654050240,,46.3857650757,-165.890869141,28.7827854156,0.0042610000819,1.0,0.0,0.0,0.0,1.0,0.0,0.0,0.0,1.0,-0.975609779358,4.51219558716,-4.14634132385,1.0,0.0,0.0,0.0,1.0,0.0,0.0,0.0,1.0,1.51792385254,-2.74854350586,9.67257470703,1.0,0.0,0.0,0.0,1.0,0.0,0.0,0.0,1.0
1489584291674383438,5,1489584291672556097,,46.2447357178,-165.959701538,28.6198673248,0.00428499979898,1.0,0.0,0.0,0.0,1.0,0.0,0.0,0.0,1.0,-1.58536589146,5.73170757294,-4.81707286835,1.0,0.0,0.0,0.0,1.0,0.0,0.0,0.0,1.0,1.81001645508,-2.95923325195,9.47146118306,1.0,0.0,0.0,0.0,1.0,0.0,0.0,0.0,1.0
1489584291696465123,6,1489584291694356845,,45.882900238,-166.10585022,28.3669967651,0.00420700013638,1.0,0.0,0.0,0.0,1.0,0.0,0.0,0.0,1.0,-1.46341466904,6.7682929039,-5.60975599289,1.0,0.0,0.0,0.0,1.0,0.0,0.0,0.0,1.0,2.02549460449,-3.36624753418,9.53849999858,1.0,0.0,0.0,0.0,1.0,0.0,0.0,0.0,1.0
1489584291717248842,7,1489584291714830876,,45.5791320801,-166.192810059,28.1797561646,0.00337600009516,1.0,0.0,0.0,0.0,1.0,0.0,0.0,0.0,1.0,-1.15853655338,5.42682933807,-5.91463422775,1.0,0.0,0.0,0.0,1.0,0.0,0.0,0.0,1.0,1.75734401855,-3.22259543457,9.48582756206,1.0,0.0,0.0,0.0,1.0,0.0,0.0,0.0,1.0
1489584291740745524,8,1489584291738349330,,45.2970809937,-166.242721558,28.0168972015,0.00317799998447,1.0,0.0,0.0,0.0,1.0,0.0,0.0,0.0,1.0,-0.731707334518,4.39024400711,-5.18292713165,1.0,0.0,0.0,0.0,1.0,0.0,0.0,0.0,1.0,1.65199914551,-3.33751711426,9.47146118306,1.0,0.0,0.0,0.0,1.0,0.0,0.0,0.0,1.0
1489584291762989345,9,1489584291760765286,,45.0169487,-166.327453613,27.7791461945,0.0029579999391,1.0,0.0,0.0,0.0,1.0,0.0,0.0,0.0,1.0,-0.609756112099,4.14634132385,-3.29268312454,1.0,0.0,0.0,0.0,1.0,0.0,0.0,0.0,1.0,1.5562310791,-3.39976635742,9.36132790669,1.0,0.0,0.0,0.0,1.0,0.0,0.0,0.0,1.0
1489584291790091178,10,1489584291784720249,,44.7850532532,-166.395324707,27.5630435944,0.0025420000311,1.0,0.0,0.0,0.0,1.0,0.0,0.0,0.0,1.0,0.426829278469,4.45121955872,-1.8292683363,1.0,0.0,0.0,0.0,1.0,0.0,0.0,0.0,1.0,1.54186586914,-3.36624753418,9.35653950337,1.0,0.0,0.0,0.0,1.0,0.0,0.0,0.0,1.0
1489584291807561360,11,1489584291805527457,,44.5627632141,-166.498153687,27.2959041595,0.00244399998337,1.0,0.0,0.0,0.0,1.0,0.0,0.0,0.0,1.0,0.609756112099,3.71951246262,-1.2195122242,1.0,0.0,0.0,0.0,1.0,0.0,0.0,0.0,1.0,1.55144267578,-3.20344182129,9.50019277202,1.0,0.0,0.0,0.0,1.0,0.0,0.0,0.0,1.0
1489584291831674188,12,1489584291826782737,,44.3504219055,-166.622329712,26.9972381592,0.00247299997136,1.0,0.0,0.0,0.0,1.0,0.0,0.0,0.0,1.0,1.15853655338,3.23170733452,0.0,1.0,0.0,0.0,0.0,1.0,0.0,0.0,0.0,1.0,1.4604630127,-3.3231519043,9.48103915874,1.0,0.0,0.0,0.0,1.0,0.0,0.0,0.0,1.0
1489584291848576922,13,1489584291845108855,,44.1635055542,-166.748062134,26.6868133545,0.00251800008118,1.0,0.0,0.0,0.0,1.0,0.0,0.0,0.0,1.0,1.2804877758,0.914634168148,1.2195122242,1.0,0.0,0.0,0.0,1.0,0.0,0.0,0.0,1.0,1.67115275879,-3.13161577148,9.41400034321,1.0,0.0,0.0,0.0,1.0,0.0,0.0,0.0,1.0
1489584291869086266,14,1489584291866440801,,44.0126991272,-166.895629883,26.3511638641,0.0024689999409,1.0,0.0,0.0,0.0,1.0,0.0,0.0,0.0,1.0,1.34146344662,0.609756112099,1.95121955872,1.0,0.0,0.0,0.0,1.0,0.0,0.0,0.0,1.0,1.75255561523,-3.05500131836,9.48103915874,1.0,0.0,0.0,0.0,1.0,0.0,0.0,0.0,1.0
1489584291892310189,15,1489584291889911391,,43.8430557251,-167.083755493,25.9639282227,0.00277199991979,1.0,0.0,0.0,0.0,1.0,0.0,0.0,0.0,1.0,0.426829278469,0.426829278469,2.01219511032,1.0,0.0,0.0,0.0,1.0,0.0,0.0,0.0,1.0,1.7908628418,-3.03584770508,9.54807680523,1.0,0.0,0.0,0.0,1.0,0.0,0.0,0.0,1.0
1489584291916227653,16,1489584291913896615,,43.7093238831,-167.307571411,25.5411510468,0.00353899993934,1.0,0.0,0.0,0.0,1.0,0.0,0.0,0.0,1.0,-0.243902444839,-0.548780500889,1.8292683363,1.0,0.0,0.0,0.0,1.0,0.0,0.0,0.0,1.0,1.81001645508,-3.10767375488,9.65821008159,1.0,0.0,0.0,0.0,1.0,0.0,0.0,0.0,1.0
1489584291938563660,17,1489584291934952937,,43.6095466614,-167.464096069,25.2279014587,0.00296099996194,1.0,0.0,0.0,0.0,1.0,0.0,0.0,0.0,1.0,-0.792682945728,-0.731707334518,2.19512200356,1.0,0.0,0.0,0.0,1.0,0.0,0.0,0.0,1.0,1.76213242187,-3.28005627441,9.55286520855,1.0,0.0,0.0,0.0,1.0,0.0,0.0,0.0,1.0
1489584291957536444,18,1489584291955560926,,43.5153465271,-167.67124939,24.8499183655,0.00288600008935,1.0,0.0,0.0,0.0,1.0,0.0,0.0,0.0,1.0,-1.70731711388,-1.46341466904,2.37804889679,1.0,0.0,0.0,0.0,1.0,0.0,0.0,0.0,1.0,1.70945998535,-3.064578125,9.55765361187,1.0,0.0,0.0,0.0,1.0,0.0,0.0,0.0,1.0
1489584291979317088,19,1489584291976037926,,43.4395637512,-167.835617065,24.5575771332,0.00316699990071,1.0,0.0,0.0,0.0,1.0,0.0,0.0,0.0,1.0,-1.95121955872,-1.2195122242,1.52439022064,1.0,0.0,0.0,0.0,1.0,0.0,0.0,0.0,1.0,1.74297880859,-3.09330854492,9.63426806499,1.0,0.0,0.0,0.0,1.0,0.0,0.0,0.0,1.0
1489584291999637473,20,1489584291996694197,,43.3221626282,-168.019363403,24.2329750061,0.00296700000763,1.0,0.0,0.0,0.0,1.0,0.0,0.0,0.0,1.0,-1.2195122242,-0.548780500889,1.2804877758,1.0,0.0,0.0,0.0,1.0,0.0,0.0,0.0,1.0,1.85790048828,-3.09809694824,9.60553764507,1.0,0.0,0.0,0.0,1.0,0.0,0.0,0.0,1.0
1489584292021146347,21,1489584292017605779,,43.1977767944,-168.209503174,23.8625679016,0.00250099995174,1.0,0.0,0.0,0.0,1.0,0.0,0.0,0.0,1.0,-0.365853667259,0.853658556938,0.853658556938,1.0,0.0,0.0,0.0,1.0,0.0,0.0,0.0,1.0,1.69509477539,-3.10288535156,9.27513723145,1.0,0.0,0.0,0.0,1.0,0.0,0.0,0.0,1.0
1489584292043574698,22,1489584292040226786,,43.0705032349,-168.304702759,23.5849456787,0.00260500004515,1.0,0.0,0.0,0.0,1.0,0.0,0.0,0.0,1.0,-0.18292683363,1.2804877758,0.365853667259,1.0,0.0,0.0,0.0,1.0,0.0,0.0,0.0,1.0,1.67594116211,-3.35667072754,9.36611631001,1.0,0.0,0.0,0.0,1.0,0.0,0.0,0.0,1.0
1489584292067083829,23,1489584292063127429,,42.8886642456,-168.385864258,23.3177490234,0.00274199992418,1.0,0.0,0.0,0.0,1.0,0.0,0.0,0.0,1.0,1.46341466904,1.8902438879,-0.792682945728,1.0,0.0,0.0,0.0,1.0,0.0,0.0,0.0,1.0,1.64721074219,-3.21301862793,9.47624958638,1.0,0.0,0.0,0.0,1.0,0.0,0.0,0.0,1.0
1489584292089481034,24,1489584292085046510,,42.7268829346,-168.43170166,23.0970172882,0.002416000003,1.0,0.0,0.0,0.0,1.0,0.0,0.0,0.0,1.0,1.46341466904,2.92682933807,-2.25609779358,1.0,0.0,0.0,0.0,1.0,0.0,0.0,0.0,1.0,1.91536132812,-3.14598098145,9.47146118306,1.0,0.0,0.0,0.0,1.0,0.0,0.0,0.0,1.0
1489584292109842878,25,1489584292106459967,,42.510345459,-168.490997314,22.8658409119,0.00240099988878,1.0,0.0,0.0,0.0,1.0,0.0,0.0,0.0,1.0,1.03658533096,4.32926845551,-3.23170733452,1.0,0.0,0.0,0.0,1.0,0.0,0.0,0.0,1.0,2.01112939453,-2.96881005859,9.56723041851,1.0,0.0,0.0,0.0,1.0,0.0,0.0,0.0,1.0
1489584292131735449,26,1489584292129929254,,42.2554740906,-168.54119873,22.6445198059,0.00385900004767,1.0,0.0,0.0,0.0,1.0,0.0,0.0,0.0,1.0,0.487804889679,5.60975599289,-3.96341490746,1.0,0.0,0.0,0.0,1.0,0.0,0.0,0.0,1.0,1.72861359863,-3.04542451172,9.53371159526,1.0,0.0,0.0,0.0,1.0,0.0,0.0,0.0,1.0
1489584292153903540,27,1489584292152061147,,41.990814209,-168.588485718,22.4314918518,0.00279100006446,1.0,0.0,0.0,0.0,1.0,0.0,0.0,0.0,1.0,0.670731723309,5.79268312454,-3.90243911743,1.0,0.0,0.0,0.0,1.0,0.0,0.0,0.0,1.0,1.85790048828,-3.09330854492,9.45230756977,1.0,0.0,0.0,0.0,1.0,0.0,0.0,0.0,1.0
1489584292176348454,28,1489584292174153405,,41.734249115,-168.626312256,22.245388031,0.00293700001203,1.0,0.0,0.0,0.0,1.0,0.0,0.0,0.0,1.0,0.426829278469,6.21951246262,-3.53658556938,1.0,0.0,0.0,0.0,1.0,0.0,0.0,0.0,1.0,1.8626888916,-3.0406361084,9.50498117534,1.0,0.0,0.0,0.0,1.0,0.0,0.0,0.0,1.0
1489584292198454722,29,1489584292196495975,,41.4646644592,-168.654586792,22.0646133423,0.00269300001673,1.0,0.0,0.0,0.0,1.0,0.0,0.0,0.0,1.0,0.304878056049,6.52439069748,-3.23170733452,1.0,0.0,0.0,0.0,1.0,0.0,0.0,0.0,1.0,1.74297880859,-3.08373173828,9.50976957866,1.0,0.0,0.0,0.0,1.0,0.0,0.0,0.0,1.0
1489584292220919480,30,1489584292219048024,,41.1914825439,-168.713012695,21.8336162567,0.00281400000677,1.0,0.0,0.0,0.0,1.0,0.0,0.0,0.0,1.0,0.731707334518,6.0365858078,-2.80487799644,1.0,0.0,0.0,0.0,1.0,0.0,0.0,0.0,1.0,1.59932670898,-3.19386501465,9.50498117534,1.0,0.0,0.0,0.0,1.0,0.0,0.0,0.0,1.0
1489584292242607676,31,1489584292240776012,,40.9367599487,-168.730270386,21.635011673,0.00254700006917,1.0,0.0,0.0,0.0,1.0,0.0,0.0,0.0,1.0,0.853658556938,5.42682933807,-1.8902438879,1.0,0.0,0.0,0.0,1.0,0.0,0.0,0.0,1.0,1.63763393555,-3.34230551758,9.35653950337,1.0,0.0,0.0,0.0,1.0,0.0,0.0,0.0,1.0
1489584292264980558,32,1489584292263117957,,40.7014389038,-168.779602051,21.3838443756,0.00243499991484,1.0,0.0,0.0,0.0,1.0,0.0,0.0,0.0,1.0,0.975609779358,4.87804889679,-1.2804877758,1.0,0.0,0.0,0.0,1.0,0.0,0.0,0.0,1.0,1.59932670898,-3.10767375488,9.50976957866,1.0,0.0,0.0,0.0,1.0,0.0,0.0,0.0,1.0
1489584292287614899,33,1489584292285741776,,40.5121231079,-168.821426392,21.1519489288,0.00244199996814,1.0,0.0,0.0,0.0,1.0,0.0,0.0,0.0,1.0,0.792682945728,4.08536577225,-0.670731723309,1.0,0.0,0.0,0.0,1.0,0.0,0.0,0.0,1.0,1.75255561523,-3.12203896484,9.57201882183,1.0,0.0,0.0,0.0,1.0,0.0,0.0,0.0,1.0
1489584292310457885,34,1489584292308410440,,40.330242157,-168.928192139,20.8402423859,0.00242900010198,1.0,0.0,0.0,0.0,1.0,0.0,0.0,0.0,1.0,0.426829278469,3.35365867615,0.243902444839,1.0,0.0,0.0,0.0,1.0,0.0,0.0,0.0,1.0,1.5562310791,-3.02148249512,9.62469125835,1.0,0.0,0.0,0.0,1.0,0.0,0.0,0.0,1.0
1489584292332439205,35,1489584292329752647,,40.1780586243,-169.026260376,20.5500564575,0.0040830001235,1.0,0.0,0.0,0.0,1.0,0.0,0.0,0.0,1.0,0.12195122242,2.62195134163,0.304878056049,1.0,0.0,0.0,0.0,1.0,0.0,0.0,0.0,1.0,1.51313544922,-3.09330854492,9.57680722515,1.0,0.0,0.0,0.0,1.0,0.0,0.0,0.0,1.0
1489584292354818598,36,1489584292352421831,,40.0486450195,-169.133834839,20.2463359833,0.00285800010897,1.0,0.0,0.0,0.0,1.0,0.0,0.0,0.0,1.0,0.243902444839,1.8292683363,0.731707334518,1.0,0.0,0.0,0.0,1.0,0.0,0.0,0.0,1.0,1.68072956543,-2.91613762207,9.57680722515,1.0,0.0,0.0,0.0,1.0,0.0,0.0,0.0,1.0
1489584292376291690,37,1489584292374924401,,39.9388999939,-169.238037109,19.9565315247,0.00281199999154,1.0,0.0,0.0,0.0,1.0,0.0,0.0,0.0,1.0,-0.12195122242,1.2804877758,0.609756112099,1.0,0.0,0.0,0.0,1.0,0.0,0.0,0.0,1.0,1.58496149902,-3.0885201416,9.52892319194,1.0,0.0,0.0,0.0,1.0,0.0,0.0,0.0,1.0
1489584292398821031,38,1489584292397418742,,39.8263130188,-169.315673828,19.6933746338,0.0025490000844,1.0,0.0,0.0,0.0,1.0,0.0,0.0,0.0,1.0,-0.0609756112099,0.18292683363,1.09756100178,1.0,0.0,0.0,0.0,1.0,0.0,0.0,0.0,1.0,1.62805712891,-3.25132585449,9.53371159526,1.0,0.0,0.0,0.0,1.0,0.0,0.0,0.0,1.0
1489584292422672036,39,1489584292420379019,,39.7218437195,-169.422027588,19.374256134,0.00250699999742,1.0,0.0,0.0,0.0,1.0,0.0,0.0,0.0,1.0,0.243902444839,-0.243902444839,1.34146344662,1.0,0.0,0.0,0.0,1.0,0.0,0.0,0.0,1.0,1.57059628906,-3.25132585449,9.40442353657,1.0,0.0,0.0,0.0,1.0,0.0,0.0,0.0,1.0
1489584292443253567,40,1489584292441863778,,39.6301116943,-169.508529663,19.0970783234,0.00250599998981,1.0,0.0,0.0,0.0,1.0,0.0,0.0,0.0,1.0,0.12195122242,-0.670731723309,0.975609779358,1.0,0.0,0.0,0.0,1.0,0.0,0.0,0.0,1.0,1.58496149902,-3.07415493164,9.4954043687,1.0,0.0,0.0,0.0,1.0,0.0,0.0,0.0,1.0
1489584292465096295,41,1489584292463635724,,39.5439682007,-169.602844238,18.8146152496,0.00241700001061,1.0,0.0,0.0,0.0,1.0,0.0,0.0,0.0,1.0,0.243902444839,-0.609756112099,0.731707334518,1.0,0.0,0.0,0.0,1.0,0.0,0.0,0.0,1.0,1.67115275879,-3.09809694824,9.57201882183,1.0,0.0,0.0,0.0,1.0,0.0,0.0,0.0,1.0
1489584292489704226,42,1489584292485890430,,39.4246139526,-169.6796875,18.5413341522,0.00243999995291,1.0,0.0,0.0,0.0,1.0,0.0,0.0,0.0,1.0,0.365853667259,-0.670731723309,0.731707334518,1.0,0.0,0.0,0.0,1.0,0.0,0.0,0.0,1.0,1.95845695801,-3.16513459473,9.56723041851,1.0,0.0,0.0,0.0,1.0,0.0,0.0,0.0,1.0
1489584292511837109,43,1489584292507375657,,39.2948493958,-169.745407104,18.2845935822,0.00242900010198,1.0,0.0,0.0,0.0,1.0,0.0,0.0,0.0,1.0,0.12195122242,-0.365853667259,0.304878056049,1.0,0.0,0.0,0.0,1.0,0.0,0.0,0.0,1.0,1.8148048584,-3.12682736816,9.55286520855,1.0,0.0,0.0,0.0,1.0,0.0,0.0,0.0,1.0
1489584292534177023,44,1489584292528744739,,39.1560707092,-169.79359436,18.056930542,0.00363299995661,1.0,0.0,0.0,0.0,1.0,0.0,0.0,0.0,1.0,0.12195122242,1.03658533096,0.12195122242,1.0,0.0,0.0,0.0,1.0,0.0,0.0,0.0,1.0,1.9105729248,-3.04542451172,9.53371159526,1.0,0.0,0.0,0.0,1.0,0.0,0.0,0.0,1.0
1489584292552474859,45,1489584292551161632,,38.971370697,-169.83152771,17.8318042755,0.00279600010253,1.0,0.0,0.0,0.0,1.0,0.0,0.0,0.0,1.0,0.365853667259,1.8902438879,-0.18292683363,1.0,0.0,0.0,0.0,1.0,0.0,0.0,0.0,1.0,1.90099611816,-3.03584770508,9.49061596538,1.0,0.0,0.0,0.0,1.0,0.0,0.0,0.0,1.0
1489584292575329876,46,1489584292573617587,,38.7478599548,-169.899810791,17.5511798859,0.00281199999154,1.0,0.0,0.0,0.0,1.0,0.0,0.0,0.0,1.0,0.792682945728,2.68292689323,-0.12195122242,1.0,0.0,0.0,0.0,1.0,0.0,0.0,0.0,1.0,1.75734401855,-3.13161577148,9.48103915874,1.0,0.0,0.0,0.0,1.0,0.0,0.0,0.0,1.0
1489584292597375676,47,1489584292596070886,,38.5610923767,-169.927490234,17.3187541962,0.00257500004955,1.0,0.0,0.0,0.0,1.0,0.0,0.0,0.0,1.0,0.487804889679,2.37804889679,0.18292683363,1.0,0.0,0.0,0.0,1.0,0.0,0.0,0.0,1.0,1.65199914551,-3.20344182129,9.56244201519,1.0,0.0,0.0,0.0,1.0,0.0,0.0,0.0,1.0
1489584292620457516,48,1489584292618267988,,38.3856048584,-169.968688965,17.0712051392,0.00271599995904,1.0,0.0,0.0,0.0,1.0,0.0,0.0,0.0,1.0,0.0,2.07317066193,0.243902444839,1.0,0.0,0.0,0.0,1.0,0.0,0.0,0.0,1.0,1.61848032227,-3.26090266113,9.49061596538,1.0,0.0,0.0,0.0,1.0,0.0,0.0,0.0,1.0
1489584292642266753,49,1489584292640372954,,38.244304657,-170.016387939,16.8284606934,0.00287099997513,1.0,0.0,0.0,0.0,1.0,0.0,0.0,0.0,1.0,0.12195122242,1.09756100178,0.792682945728,1.0,0.0,0.0,0.0,1.0,0.0,0.0,0.0,1.0,1.56580788574,-3.09330854492,9.4570959731,1.0,0.0,0.0,0.0,1.0,0.0,0.0,0.0,1.0
1489584292664549688,50,1489584292662681410,,38.1146812439,-170.063064575,16.5708026886,0.00248500006273,1.0,0.0,0.0,0.0,1.0,0.0,0.0,0.0,1.0,0.853658556938,0.548780500889,0.548780500889,1.0,0.0,0.0,0.0,1.0,0.0,0.0,0.0,1.0,1.59932670898,-3.064578125,9.52413478862,1.0,0.0,0.0,0.0,1.0,0.0,0.0,0.0,1.0
1489584292687949913,51,1489584292686016010,,37.9876403809,-170.110733032,16.3152256012,0.00335899996571,1.0,0.0,0.0,0.0,1.0,0.0,0.0,0.0,1.0,0.0609756112099,0.18292683363,0.304878056049,1.0,0.0,0.0,0.0,1.0,0.0,0.0,0.0,1.0,1.82438166504,-3.07415493164,9.59117243511,1.0,0.0,0.0,0.0,1.0,0.0,0.0,0.0,1.0
1489584292710203733,52,1489584292708164153,,37.8692512512,-170.143753052,16.1071891785,0.00366299995221,1.0,0.0,0.0,0.0,1.0,0.0,0.0,0.0,1.0,-0.426829278469,1.03658533096,0.426829278469,1.0,0.0,0.0,0.0,1.0,0.0,0.0,0.0,1.0,1.74776721191,-3.0166940918,9.64384487163,1.0,0.0,0.0,0.0,1.0,0.0,0.0,0.0,1.0
1489584292734896143,53,1489584292731145993,,37.7148208618,-170.180160522,15.8865242004,0.00475399987772,1.0,0.0,0.0,0.0,1.0,0.0,0.0,0.0,1.0,-0.487804889679,0.731707334518,0.304878056049,1.0,0.0,0.0,0.0,1.0,0.0,0.0,0.0,1.0,1.84832368164,-3.08373173828,9.43794235981,1.0,0.0,0.0,0.0,1.0,0.0,0.0,0.0,1.0
1489584292754318145,54,1489584292752474294,,37.5548744202,-170.233886719,15.6600522995,0.00363299995661,1.0,0.0,0.0,0.0,1.0,0.0,0.0,0.0,1.0,-0.548780500889,1.2804877758,0.365853667259,1.0,0.0,0.0,0.0,1.0,0.0,0.0,0.0,1.0,1.87226569824,-3.03584770508,9.57680722515,1.0,0.0,0.0,0.0,1.0,0.0,0.0,0.0,1.0
1489584292778463994,55,1489584292775145978,,37.3676223755,-170.310134888,15.402545929,0.00390099990182,1.0,0.0,0.0,0.0,1.0,0.0,0.0,0.0,1.0,-0.792682945728,1.70731711388,-0.12195122242,1.0,0.0,0.0,0.0,1.0,0.0,0.0,0.0,1.0,1.78607443848,-3.03584770508,9.42357714985,1.0,0.0,0.0,0.0,1.0,0.0,0.0,0.0,1.0
1489584292799568493,56,1489584292796049852,,37.2223815918,-170.343673706,15.2088909149,0.0031940001063,1.0,0.0,0.0,0.0,1.0,0.0,0.0,0.0,1.0,-0.914634168148,1.52439022064,0.0609756112099,1.0,0.0,0.0,0.0,1.0,0.0,0.0,0.0,1.0,1.75255561523,-3.03584770508,9.65821008159,1.0,0.0,0.0,0.0,1.0,0.0,0.0,0.0,1.0
1489584292820085701,57,1489584292817527840,,37.1018028259,-170.364028931,15.0128984451,0.00368999992497,1.0,0.0,0.0,0.0,1.0,0.0,0.0,0.0,1.0,-0.731707334518,0.975609779358,0.975609779358,1.0,0.0,0.0,0.0,1.0,0.0,0.0,0.0,1.0,1.69030637207,-3.13161577148,9.47146118306,1.0,0.0,0.0,0.0,1.0,0.0,0.0,0.0,1.0
1489584292842411500,58,1489584292839954004,,36.6251754761,-170.345947266,14.7660074234,0.00308599998243,1.0,0.0,0.0,0.0,1.0,0.0,0.0,0.0,1.0,20.4268302917,3.35365867615,-7.07317113876,1.0,0.0,0.0,0.0,1.0,0.0,0.0,0.0,1.0,-2.11168571813,-3.66312854004,-2.54743056641,1.0,0.0,0.0,0.0,1.0,0.0,0.0,0.0,1.0
1489584292865621986,59,1489584292862349178,,36.5039787292,-170.317199707,14.557882309,0.00302699999884,1.0,0.0,0.0,0.0,1.0,0.0,0.0,0.0,1.0,-3.04878044128,-6.64634132385,2.80487799644,1.0,0.0,0.0,0.0,1.0,0.0,0.0,0.0,1.0,3.92170231934,-3.94564433594,8.80587370605,1.0,0.0,0.0,0.0,1.0,0.0,0.0,0.0,1.0
1489584292889761845,60,1489584292885853882,,36.3990402222,-170.351089478,14.3383102417,0.00306500005536,1.0,0.0,0.0,0.0,1.0,0.0,0.0,0.0,1.0,2.19512200356,0.365853667259,-2.62195134163,1.0,0.0,0.0,0.0,1.0,0.0,0.0,0.0,1.0,5.06134230957,-2.80121594238,9.48103915874,1.0,0.0,0.0,0.0,1.0,0.0,0.0,0.0,1.0
1489584292912461133,61,1489584292908977545,,35.9974975586,-170.00642395,14.139298439,0.00278500001878,1.0,0.0,0.0,0.0,1.0,0.0,0.0,0.0,1.0,-4.2682929039,-3.17073178291,2.68292689323,1.0,0.0,0.0,0.0,1.0,0.0,0.0,0.0,1.0,3.55299526367,-4.33350529714,9.53849999858,1.0,0.0,0.0,0.0,1.0,0.0,0.0,0.0,1.0
1489584292932151311,62,1489584292929282670,,36.36353302,-169.232543945,13.7911624908,0.00364200002514,1.0,0.0,0.0,0.0,1.0,0.0,0.0,0.0,1.0,2.19512200356,1.8902438879,-1.2804877758,1.0,0.0,0.0,0.0,1.0,0.0,0.0,0.0,1.0,1.99676418457,-2.60967980957,8.54730051128,1.0,0.0,0.0,0.0,1.0,0.0,0.0,0.0,1.0
1489584292953725185,63,1489584292951135553,,35.9483375549,-169.090820312,13.640827179,0.00317699997686,1.0,0.0,0.0,0.0,1.0,0.0,0.0,0.0,1.0,-2.01219511032,2.62195134163,-1.40243899822,1.0,0.0,0.0,0.0,1.0,0.0,0.0,0.0,1.0,4.04620080566,-3.38061274414,10.1609918457,1.0,0.0,0.0,0.0,1.0,0.0,0.0,0.0,1.0
1489584292976516660,64,1489584292973455988,,35.5871696472,-168.708190918,13.5194387436,0.00359999993816,1.0,0.0,0.0,0.0,1.0,0.0,0.0,0.0,1.0,0.609756112099,2.62195134163,-0.975609779358,1.0,0.0,0.0,0.0,1.0,0.0,0.0,0.0,1.0,6.1530982666,-1.69509477539,7.53215842285,1.0,0.0,0.0,0.0,1.0,0.0,0.0,0.0,1.0
1489584293003399953,65,1489584292995587829,,35.6579475403,-168.110473633,13.4829931259,0.00287900003605,1.0,0.0,0.0,0.0,1.0,0.0,0.0,0.0,1.0,1.09756100178,2.5,-0.731707334518,1.0,0.0,0.0,0.0,1.0,0.0,0.0,0.0,1.0,3.12203896484,-4.12760366211,13.9677724854,1.0,0.0,0.0,0.0,1.0,0.0,0.0,0.0,1.0
1489584293019997271,66,1489584293017433733,,35.6449317932,-167.491653442,13.5689611435,0.00275300000794,1.0,0.0,0.0,0.0,1.0,0.0,0.0,0.0,1.0,-1.09756100178,5.67073154449,0.548780500889,1.0,0.0,0.0,0.0,1.0,0.0,0.0,0.0,1.0,-3.74453139648,-3.32794030762,20.0155258789,1.0,0.0,0.0,0.0,1.0,0.0,0.0,0.0,1.0
1489584293041067083,67,1489584293038516462,,35.6569519043,-167.285339355,13.3767366409,0.00285000004806,1.0,0.0,0.0,0.0,1.0,0.0,0.0,0.0,1.0,1.2804877758,1.52439022064,0.365853667259,1.0,0.0,0.0,0.0,1.0,0.0,0.0,0.0,1.0,-0.138863696289,-2.48039291992,11.0995188965,1.0,0.0,0.0,0.0,1.0,0.0,0.0,0.0,1.0
1489584293067135064,68,1489584293061545228,,35.4183998108,-166.883392334,13.2877473831,0.00514299981296,1.0,0.0,0.0,0.0,1.0,0.0,0.0,0.0,1.0,0.731707334518,1.64634156227,-1.09756100178,1.0,0.0,0.0,0.0,1.0,0.0,0.0,0.0,1.0,2.50433493652,-2.60967980957,8.45631967915,1.0,0.0,0.0,0.0,1.0,0.0,0.0,0.0,1.0
1489584293085805244,69,1489584293083428997,,35.1452636719,-166.700271606,12.9859657288,0.00302299996838,1.0,0.0,0.0,0.0,1.0,0.0,0.0,0.0,1.0,-1.03658533096,1.40243899822,0.487804889679,1.0,0.0,0.0,0.0,1.0,0.0,0.0,0.0,1.0,1.19231249982,-3.40934316406,8.75320126953,1.0,0.0,0.0,0.0,1.0,0.0,0.0,0.0,1.0
1489584293110581195,70,1489584293106736410,,34.9610519409,-166.391082764,12.7857685089,0.00300300004892,1.0,0.0,0.0,0.0,1.0,0.0,0.0,0.0,1.0,-0.792682945728,2.07317066193,1.58536589146,1.0,0.0,0.0,0.0,1.0,0.0,0.0,0.0,1.0,1.43173259277,-2.94486804199,9.74918916016,1.0,0.0,0.0,0.0,1.0,0.0,0.0,0.0,1.0
1489584293135123866,71,1489584293129324656,,34.9871330261,-166.111831665,12.6567745209,0.00438599986956,1.0,0.0,0.0,0.0,1.0,0.0,0.0,0.0,1.0,-2.98780488968,0.609756112099,0.487804889679,1.0,0.0,0.0,0.0,1.0,0.0,0.0,0.0,1.0,1.61369191895,-2.65756384277,9.20809958496,1.0,0.0,0.0,0.0,1.0,0.0,0.0,0.0,1.0
1489584293153113943,72,1489584293150264208,,35.5126190186,-165.169174194,12.6448287964,0.00464899977669,1.0,0.0,0.0,0.0,1.0,0.0,0.0,0.0,1.0,-0.304878056049,-0.304878056049,1.15853655338,1.0,0.0,0.0,0.0,1.0,0.0,0.0,0.0,1.0,0.660799658203,-3.18907661133,8.95431420898,1.0,0.0,0.0,0.0,1.0,0.0,0.0,0.0,1.0
1489584293173829745,73,1489584293171081936,,35.2944908142,-164.921035767,12.4280147552,0.00333600002341,1.0,0.0,0.0,0.0,1.0,0.0,0.0,0.0,1.0,-0.12195122242,-2.19512200356,0.609756112099,1.0,0.0,0.0,0.0,1.0,0.0,0.0,0.0,1.0,1.66157595215,-3.11725056152,9.62469125835,1.0,0.0,0.0,0.0,1.0,0.0,0.0,0.0,1.0
1489584293194672057,74,1489584293191895759,,35.5379829407,-164.525421143,12.3116292953,0.00362300011329,1.0,0.0,0.0,0.0,1.0,0.0,0.0,0.0,1.0,-0.304878056049,0.670731723309,1.03658533096,1.0,0.0,0.0,0.0,1.0,0.0,0.0,0.0,1.0,1.49398183594,-2.98317526855,9.09796630859,1.0,0.0,0.0,0.0,1.0,0.0,0.0,0.0,1.0
1489584293219346082,75,1489584293215651921,,35.5873336792,-163.906387329,11.7972011566,0.00342900003307,1.0,0.0,0.0,0.0,1.0,0.0,0.0,0.0,1.0,0.243902444839,0.670731723309,-0.365853667259,1.0,0.0,0.0,0.0,1.0,0.0,0.0,0.0,1.0,1.96803376465,-3.18907661133,10.0221281494,1.0,0.0,0.0,0.0,1.0,0.0,0.0,0.0,1.0
1489584293241748391,76,1489584293238118032,,35.8103637695,-163.403793335,11.8027982712,0.00307899992913,1.0,0.0,0.0,0.0,1.0,0.0,0.0,0.0,1.0,0.12195122242,2.56097555161,-0.609756112099,1.0,0.0,0.0,0.0,1.0,0.0,0.0,0.0,1.0,1.01514150391,-3.4428619873,10.6254669678,1.0,0.0,0.0,0.0,1.0,0.0,0.0,0.0,1.0
1489584293263364869,77,1489584293260472008,,35.3554954529,-163.163665771,11.4671936035,0.00308299995959,1.0,0.0,0.0,0.0,1.0,0.0,0.0,0.0,1.0,0.365853667259,3.47560977936,-0.548780500889,1.0,0.0,0.0,0.0,1.0,0.0,0.0,0.0,1.0,1.87705410156,-3.00232888184,9.70130512695,1.0,0.0,0.0,0.0,1.0,0.0,0.0,0.0,1.0
1489584293286915145,78,1489584293282569527,,35.603969574,-162.316146851,11.5770215988,0.00298499991186,1.0,0.0,0.0,0.0,1.0,0.0,0.0,0.0,1.0,-0.365853667259,3.90243911743,-1.34146344662,1.0,0.0,0.0,0.0,1.0,0.0,0.0,0.0,1.0,1.11090957031,-3.27047946777,10.4147772217,1.0,0.0,0.0,0.0,1.0,0.0,0.0,0.0,1.0
1489584293310333130,79,1489584293304591941,,35.7917480469,-161.807296753,11.5554704666,0.00256299995817,1.0,0.0,0.0,0.0,1.0,0.0,0.0,0.0,1.0,1.76829278469,3.71951246262,-0.304878056049,1.0,0.0,0.0,0.0,1.0,0.0,0.0,0.0,1.0,1.20188930646,-2.53306535645,9.10275471191,1.0,0.0,0.0,0.0,1.0,0.0,0.0,0.0,1.0
1489584293333982000,80,1489584293327880291,,35.4559135437,-161.6925354,11.2857370377,0.00347999995574,1.0,0.0,0.0,0.0,1.0,0.0,0.0,0.0,1.0,-1.34146344662,3.84146332741,-0.975609779358,1.0,0.0,0.0,0.0,1.0,0.0,0.0,0.0,1.0,1.37427175293,-2.87783039551,9.95509050293,1.0,0.0,0.0,0.0,1.0,0.0,0.0,0.0,1.0
1489584293351584578,81,1489584293349534633,,34.786113739,-161.510772705,10.9930715561,0.00354800000787,1.0,0.0,0.0,0.0,1.0,0.0,0.0,0.0,1.0,-0.243902444839,2.56097555161,-2.68292689323,1.0,0.0,0.0,0.0,1.0,0.0,0.0,0.0,1.0,2.03985981445,-3.52905324707,9.64384487163,1.0,0.0,0.0,0.0,1.0,0.0,0.0,0.0,1.0
1489584293373112514,82,1489584293369910383,,34.1436195374,-161.273498535,10.6683387756,0.00333199999295,1.0,0.0,0.0,0.0,1.0,0.0,0.0,0.0,1.0,-0.609756112099,3.04878044128,-0.426829278469,1.0,0.0,0.0,0.0,1.0,0.0,0.0,0.0,1.0,1.838746875,-2.98317526855,9.46188437642,1.0,0.0,0.0,0.0,1.0,0.0,0.0,0.0,1.0
1489584293395561021,83,1489584293392506703,,33.5839233398,-160.92767334,10.2690563202,0.00295999995433,1.0,0.0,0.0,0.0,1.0,0.0,0.0,0.0,1.0,-0.731707334518,2.07317066193,-0.487804889679,1.0,0.0,0.0,0.0,1.0,0.0,0.0,0.0,1.0,1.69509477539,-3.44765039062,9.27034882812,1.0,0.0,0.0,0.0,1.0,0.0,0.0,0.0,1.0
1489584293417161092,84,1489584293413858337,,33.617275238,-160.189880371,9.76351547241,0.00294400006533,1.0,0.0,0.0,0.0,1.0,0.0,0.0,0.0,1.0,3.47560977936,-5.91463422775,7.86585378647,1.0,0.0,0.0,0.0,1.0,0.0,0.0,0.0,1.0,5.1379567627,0.794874951172,14.6525141602,1.0,0.0,0.0,0.0,1.0,0.0,0.0,0.0,1.0
1489584293437661113,85,1489584293435914397,,33.7114448547,-159.448852539,9.77893066406,0.00298100011423,1.0,0.0,0.0,0.0,1.0,0.0,0.0,0.0,1.0,7.62195110321,-10.9756097794,10.6707315445,1.0,0.0,0.0,0.0,1.0,0.0,0.0,0.0,1.0,0.076614453125,0.258573779297,15.337255835,1.0,0.0,0.0,0.0,1.0,0.0,0.0,0.0,1.0
1489584293459786600,86,1489584293457066136,,33.7860107422,-158.733886719,9.86789417267,0.00277199991979,1.0,0.0,0.0,0.0,1.0,0.0,0.0,0.0,1.0,10.3658542633,8.10975551605,-4.32926845551,1.0,0.0,0.0,0.0,1.0,0.0,0.0,0.0,1.0,0.143652099609,-2.07816689489,9.71567033691,1.0,0.0,0.0,0.0,1.0,0.0,0.0,0.0,1.0
1489584293482364847,87,1489584293478948081,,33.5447120667,-158.258056641,9.68226337433,0.00268799997866,1.0,0.0,0.0,0.0,1.0,0.0,0.0,0.0,1.0,-2.25609779358,-0.12195122242,2.80487799644,1.0,0.0,0.0,0.0,1.0,0.0,0.0,0.0,1.0,1.99197578125,-3.35667072754,11.3245738525,1.0,0.0,0.0,0.0,1.0,0.0,0.0,0.0,1.0
1489584293503547471,88,1489584293499953987,,33.7759590149,-157.200180054,9.83367061615,0.00372199993581,1.0,0.0,0.0,0.0,1.0,0.0,0.0,0.0,1.0,1.34146344662,0.0609756112099,0.304878056049,1.0,0.0,0.0,0.0,1.0,0.0,0.0,0.0,1.0,1.37906015625,-3.55299526367,8.27914934082,1.0,0.0,0.0,0.0,1.0,0.0,0.0,0.0,1.0
1489584293531753678,89,1489584293522533640,,33.4735450745,-156.682540894,9.80043315887,0.00265699997544,1.0,0.0,0.0,0.0,1.0,0.0,0.0,0.0,1.0,1.03658533096,2.13414645195,-0.426829278469,1.0,0.0,0.0,0.0,1.0,0.0,0.0,0.0,1.0,2.92571442871,-2.85388837891,9.14106193848,1.0,0.0,0.0,0.0,1.0,0.0,0.0,0.0,1.0
1489584293549211933,90,1489584293543765430,,33.5809822083,-156.041992188,9.73695278168,0.00323699996807,1.0,0.0,0.0,0.0,1.0,0.0,0.0,0.0,1.0,0.670731723309,1.40243899822,-1.2195122242,1.0,0.0,0.0,0.0,1.0,0.0,0.0,0.0,1.0,2.07337849156,-2.21224233398,11.2144405762,1.0,0.0,0.0,0.0,1.0,0.0,0.0,0.0,1.0
1489584293569326850,91,1489584293564616597,,33.8524856567,-155.254272461,9.79603767395,0.00365999992937,1.0,0.0,0.0,0.0,1.0,0.0,0.0,0.0,1.0,-1.2195122242,3.59756112099,-0.243902444839,1.0,0.0,0.0,0.0,1.0,0.0,0.0,0.0,1.0,-0.0478840332031,-2.61446821289,11.3054202393,1.0,0.0,0.0,0.0,1.0,0.0,0.0,0.0,1.0
1489584293590788692,92,1489584293586543699,,33.6423110962,-154.841110229,9.73589992523,0.00298699992709,1.0,0.0,0.0,0.0,1.0,0.0,0.0,0.0,1.0,-1.95121955872,2.86585378647,-0.731707334518,1.0,0.0,0.0,0.0,1.0,0.0,0.0,0.0,1.0,-0.636857641602,-2.54264216309,12.2008516602,1.0,0.0,0.0,0.0,1.0,0.0,0.0,0.0,1.0
1489584293613715480,93,1489584293609477466,,34.1396179199,-153.759658813,9.89879894257,0.00282700010575,1.0,0.0,0.0,0.0,1.0,0.0,0.0,0.0,1.0,-0.914634168148,2.43902444839,1.2195122242,1.0,0.0,0.0,0.0,1.0,0.0,0.0,0.0,1.0,1.51313544922,-2.12605122035,8.58081933452,1.0,0.0,0.0,0.0,1.0,0.0,0.0,0.0,1.0
1489584293634579406,94,1489584293631448005,,34.1895294189,-153.075820923,9.85966682434,0.00379900005646,1.0,0.0,0.0,0.0,1.0,0.0,0.0,0.0,1.0,0.365853667259,2.43902444839,1.58536589146,1.0,0.0,0.0,0.0,1.0,0.0,0.0,0.0,1.0,1.19710090314,0.00957680664062,11.8943938477,1.0,0.0,0.0,0.0,1.0,0.0,0.0,0.0,1.0
1489584293657315466,95,1489584293653852502,,33.9299545288,-152.51991272,9.55244636536,0.00331500009634,1.0,0.0,0.0,0.0,1.0,0.0,0.0,0.0,1.0,-1.95121955872,3.71951246262,0.304878056049,1.0,0.0,0.0,0.0,1.0,0.0,0.0,0.0,1.0,2.9927520752,-1.66157595215,9.30865547017,1.0,0.0,0.0,0.0,1.0,0.0,0.0,0.0,1.0
1489584293679954702,96,1489584293676079291,,34.2682037354,-151.475234985,9.71896457672,0.00309800007381,1.0,0.0,0.0,0.0,1.0,0.0,0.0,0.0,1.0,-1.8902438879,1.52439022064,1.40243899822,1.0,0.0,0.0,0.0,1.0,0.0,0.0,0.0,1.0,1.84832368164,-4.08929643555,12.1625444336,1.0,0.0,0.0,0.0,1.0,0.0,0.0,0.0,1.0
1489584293702941177,97,1489584293699294985,,34.1957931519,-150.553482056,9.90625286102,0.00324200000614,1.0,0.0,0.0,0.0,1.0,0.0,0.0,0.0,1.0,-0.304878056049,1.2804877758,2.74390244484,1.0,0.0,0.0,0.0,1.0,0.0,0.0,0.0,1.0,1.7908628418,-3.30399829102,7.72369455566,1.0,0.0,0.0,0.0,1.0,0.0,0.0,0.0,1.0
1489584293728696919,98,1489584293721402243,,34.2547531128,-149.768051147,10.0538425446,0.00277499994263,1.0,0.0,0.0,0.0,1.0,0.0,0.0,0.0,1.0,0.0,0.0,-0.18292683363,1.0,0.0,0.0,0.0,1.0,0.0,0.0,0.0,1.0,2.79642753906,-2.82036955566,10.5344873047,1.0,0.0,0.0,0.0,1.0,0.0,0.0,0.0,1.0
1489584293749665689,99,1489584293744350072,,34.2966537476,-149.191680908,9.73408508301,0.00267200008966,1.0,0.0,0.0,0.0,1.0,0.0,0.0,0.0,1.0,-0.365853667259,0.792682945728,0.853658556938,1.0,0.0,0.0,0.0,1.0,0.0,0.0,0.0,1.0,2.74375510254,-3.15555778809,7.80988581543,1.0,0.0,0.0,0.0,1.0,0.0,0.0,0.0,1.0
1489584293772526279,100,1489584293767213423,,34.2953605652,-148.458358765,9.63352870941,0.00331700011156,1.0,0.0,0.0,0.0,1.0,0.0,0.0,0.0,1.0,2.13414645195,0.426829278469,-0.426829278469,1.0,0.0,0.0,0.0,1.0,0.0,0.0,0.0,1.0,2.24576115723,-2.7581203125,10.1945106689,1.0,0.0,0.0,0.0,1.0,0.0,0.0,0.0,1.0
1489584293792959113,101,1489584293790270211,,34.330947876,-147.392120361,9.9452419281,0.00304499990307,1.0,0.0,0.0,0.0,1.0,0.0,0.0,0.0,1.0,-0.914634168148,0.243902444839,-1.2804877758,1.0,0.0,0.0,0.0,1.0,0.0,0.0,0.0,1.0,2.24097275391,-3.77326181641,7.61834968262,1.0,0.0,0.0,0.0,1.0,0.0,0.0,0.0,1.0
1489584293817966106,102,1489584293813755748,,34.1268348694,-146.681259155,9.61292743683,0.00384899997152,1.0,0.0,0.0,0.0,1.0,0.0,0.0,0.0,1.0,-0.914634168148,2.92682933807,1.76829278469,1.0,0.0,0.0,0.0,1.0,0.0,0.0,0.0,1.0,0.785298144531,-3.64876333008,10.1514150391,1.0,0.0,0.0,0.0,1.0,0.0,0.0,0.0,1.0
1489584293840830915,103,1489584293839021543,,34.2588768005,-145.753799438,9.45814704895,0.0117769995704,1.0,0.0,0.0,0.0,1.0,0.0,0.0,0.0,1.0,-0.12195122242,2.74390244484,-0.609756112099,1.0,0.0,0.0,0.0,1.0,0.0,0.0,0.0,1.0,1.70945998535,-3.08373173828,9.2942902602,1.0,0.0,0.0,0.0,1.0,0.0,0.0,0.0,1.0
1489584293860791718,104,1489584293859179220,,33.7752151489,-145.422622681,9.00549411774,0.0031429999508,1.0,0.0,0.0,0.0,1.0,0.0,0.0,0.0,1.0,0.0609756112099,4.57317066193,-1.34146344662,1.0,0.0,0.0,0.0,1.0,0.0,0.0,0.0,1.0,2.03985981445,-2.92571442871,9.34217429341,1.0,0.0,0.0,0.0,1.0,0.0,0.0,0.0,1.0
1489584293881171530,105,1489584293879467887,,33.6960105896,-144.359634399,9.01167964935,0.00400400022045,1.0,0.0,0.0,0.0,1.0,0.0,0.0,0.0,1.0,0.487804889679,3.35365867615,-2.13414645195,1.0,0.0,0.0,0.0,1.0,0.0,0.0,0.0,1.0,2.27927998047,-3.34230551758,9.5432884019,1.0,0.0,0.0,0.0,1.0,0.0,0.0,0.0,1.0
1489584293903980975,106,1489584293902593998,,33.8031768799,-143.269683838,9.57505607605,0.00346600008197,1.0,0.0,0.0,0.0,1.0,0.0,0.0,0.0,1.0,-0.304878056049,4.45121955872,-1.40243899822,1.0,0.0,0.0,0.0,1.0,0.0,0.0,0.0,1.0,2.14999323695,-2.97359846191,9.31823227681,1.0,0.0,0.0,0.0,1.0,0.0,0.0,0.0,1.0
1489584293923686257,107,1489584293921910114,,33.8686408997,-142.568084717,9.478099823,0.00378399994224,1.0,0.0,0.0,0.0,1.0,0.0,0.0,0.0,1.0,-0.487804889679,3.59756112099,-0.670731723309,1.0,0.0,0.0,0.0,1.0,0.0,0.0,0.0,1.0,1.73340200195,-3.09809694824,8.84896933594,1.0,0.0,0.0,0.0,1.0,0.0,0.0,0.0,1.0
1489584293949804394,108,1489584293942791697,,33.6319236755,-142.197341919,9.06603717804,0.00258200010285,1.0,0.0,0.0,0.0,1.0,0.0,0.0,0.0,1.0,-0.304878056049,3.53658556938,-0.365853667259,1.0,0.0,0.0,0.0,1.0,0.0,0.0,0.0,1.0,1.5562310791,-3.07415493164,9.50498117534,1.0,0.0,0.0,0.0,1.0,0.0,0.0,0.0,1.0
1489584293965434839,109,1489584293963942915,,33.1245918274,-141.845596313,8.51008033752,0.00248900009319,1.0,0.0,0.0,0.0,1.0,0.0,0.0,0.0,1.0,0.0609756112099,2.92682933807,0.18292683363,1.0,0.0,0.0,0.0,1.0,0.0,0.0,0.0,1.0,1.90578452148,-3.33751711426,9.38526992329,1.0,0.0,0.0,0.0,1.0,0.0,0.0,0.0,1.0
1489584293987635274,110,1489584293986539755,,32.5616569519,-141.448562622,7.93499422073,0.00240599992685,1.0,0.0,0.0,0.0,1.0,0.0,0.0,0.0,1.0,-0.365853667259,2.62195134163,0.12195122242,1.0,0.0,0.0,0.0,1.0,0.0,0.0,0.0,1.0,1.84353527832,-3.20344182129,9.62947966167,1.0,0.0,0.0,0.0,1.0,0.0,0.0,0.0,1.0
1489584294008333628,111,1489584294006737172,,32.0814704895,-141.086257935,7.38954544067,0.00242400006391,1.0,0.0,0.0,0.0,1.0,0.0,0.0,0.0,1.0,-0.548780500889,1.76829278469,0.426829278469,1.0,0.0,0.0,0.0,1.0,0.0,0.0,0.0,1.0,1.81959326172,-3.17471140137,9.44273076313,1.0,0.0,0.0,0.0,1.0,0.0,0.0,0.0,1.0
1489584294041704410,112,1489584294035628691,,31.4649581909,-140.593551636,6.65329885483,0.00909900013357,1.0,0.0,0.0,0.0,1.0,0.0,0.0,0.0,1.0,-0.548780500889,1.58536589146,0.670731723309,1.0,0.0,0.0,0.0,1.0,0.0,0.0,0.0,1.0,1.70945998535,-3.064578125,9.46667277974,1.0,0.0,0.0,0.0,1.0,0.0,0.0,0.0,1.0
1489584294058232562,113,1489584294056810325,,30.9669971466,-140.183135986,6.08981609344,0.00586999999359,1.0,0.0,0.0,0.0,1.0,0.0,0.0,0.0,1.0,-0.304878056049,0.914634168148,0.609756112099,1.0,0.0,0.0,0.0,1.0,0.0,0.0,0.0,1.0,1.86747729492,-3.10767375488,9.57680722515,1.0,0.0,0.0,0.0,1.0,0.0,0.0,0.0,1.0
1489584294084336377,114,1489584294078273261,,30.4956016541,-139.760910034,5.52233505249,0.00309500005096,1.0,0.0,0.0,0.0,1.0,0.0,0.0,0.0,1.0,-0.0609756112099,0.18292683363,1.09756100178,1.0,0.0,0.0,0.0,1.0,0.0,0.0,0.0,1.0,1.84353527832,-3.12203896484,9.50976957866,1.0,0.0,0.0,0.0,1.0,0.0,0.0,0.0,1.0
1489584294101001716,115,1489584294099401041,,30.0363578796,-139.317337036,4.95465087891,0.00353899993934,1.0,0.0,0.0,0.0,1.0,0.0,0.0,0.0,1.0,-0.243902444839,0.0609756112099,1.2195122242,1.0,0.0,0.0,0.0,1.0,0.0,0.0,0.0,1.0,1.77649763184,-3.08373173828,9.59117243511,1.0,0.0,0.0,0.0,1.0,0.0,0.0,0.0,1.0
1489584294124288243,116,1489584294121886319,,29.549861908,-138.834793091,4.3680973053,0.00288000004366,1.0,0.0,0.0,0.0,1.0,0.0,0.0,0.0,1.0,0.487804889679,-0.0609756112099,0.914634168148,1.0,0.0,0.0,0.0,1.0,0.0,0.0,0.0,1.0,1.82917006836,-3.20823022461,9.52892319194,1.0,0.0,0.0,0.0,1.0,0.0,0.0,0.0,1.0
1489584294144293369,117,1489584294142675715,,29.0790634155,-138.355224609,3.80451607704,0.00305199995637,1.0,0.0,0.0,0.0,1.0,0.0,0.0,0.0,1.0,0.12195122242,0.304878056049,0.792682945728,1.0,0.0,0.0,0.0,1.0,0.0,0.0,0.0,1.0,1.89141931152,-3.14119257812,9.52413478862,1.0,0.0,0.0,0.0,1.0,0.0,0.0,0.0,1.0
1489584294169207497,118,1489584294168001562,,28.5303268433,-137.801559448,3.14065694809,0.00372799998149,1.0,0.0,0.0,0.0,1.0,0.0,0.0,0.0,1.0,0.304878056049,1.03658533096,0.0,1.0,0.0,0.0,0.0,1.0,0.0,0.0,0.0,1.0,2.01112939453,-3.16992299805,9.43794235981,1.0,0.0,0.0,0.0,1.0,0.0,0.0,0.0,1.0
1489584294193284388,119,1489584294188994915,,27.9732818604,-137.288635254,2.52795863152,0.00288600008935,1.0,0.0,0.0,0.0,1.0,0.0,0.0,0.0,1.0,0.18292683363,2.13414645195,-0.670731723309,1.0,0.0,0.0,0.0,1.0,0.0,0.0,0.0,1.0,1.81959326172,-3.00711728516,9.5193463853,1.0,0.0,0.0,0.0,1.0,0.0,0.0,0.0,1.0
1489584294213889564,120,1489584294211124517,,27.4247436523,-136.798477173,1.94438660145,0.00267999991775,1.0,0.0,0.0,0.0,1.0,0.0,0.0,0.0,1.0,-0.12195122242,3.35365867615,-1.64634156227,1.0,0.0,0.0,0.0,1.0,0.0,0.0,0.0,1.0,1.96324536133,-3.10767375488,9.50498117534,1.0,0.0,0.0,0.0,1.0,0.0,0.0,0.0,1.0
1489584294237302133,121,1489584294234296877,,26.7908840179,-136.263778687,1.3016512394,0.00369299994782,1.0,0.0,0.0,0.0,1.0,0.0,0.0,0.0,1.0,0.243902444839,4.45121955872,-2.19512200356,1.0,0.0,0.0,0.0,1.0,0.0,0.0,0.0,1.0,2.14520483363,-3.06936652832,9.48582756206,1.0,0.0,0.0,0.0,1.0,0.0,0.0,0.0,1.0
1489584294258501840,122,1489584294255389710,,26.1227912903,-135.702804565,0.628571867943,0.00382700003684,1.0,0.0,0.0,0.0,1.0,0.0,0.0,0.0,1.0,0.365853667259,5.54878091812,-2.25609779358,1.0,0.0,0.0,0.0,1.0,0.0,0.0,0.0,1.0,1.83395847168,-3.16992299805,9.39484672993,1.0,0.0,0.0,0.0,1.0,0.0,0.0,0.0,1.0
1489584294279614933,123,1489584294277079312,,25.4851398468,-135.13168335,-0.0523761175573,0.00364800007083,1.0,0.0,0.0,0.0,1.0,0.0,0.0,0.0,1.0,0.0,5.48780488968,-2.74390244484,1.0,0.0,0.0,0.0,1.0,0.0,0.0,0.0,1.0,1.81959326172,-3.07894333496,9.61032604839,1.0,0.0,0.0,0.0,1.0,0.0,0.0,0.0,1.0
1489584294300577349,124,1489584294297518604,,24.8875007629,-134.591644287,-0.699456453323,0.00377500010654,1.0,0.0,0.0,0.0,1.0,0.0,0.0,0.0,1.0,0.426829278469,6.09756088257,-2.13414645195,1.0,0.0,0.0,0.0,1.0,0.0,0.0,0.0,1.0,1.77170922852,-3.11725056152,9.47146118306,1.0,0.0,0.0,0.0,1.0,0.0,0.0,0.0,1.0
1489584294323480179,125,1489584294320312579,,24.2407188416,-133.961532593,-1.42281758785,0.00306200003251,1.0,0.0,0.0,0.0,1.0,0.0,0.0,0.0,1.0,0.365853667259,4.75609779358,-1.8902438879,1.0,0.0,0.0,0.0,1.0,0.0,0.0,0.0,1.0,1.9105729248,-3.16513459473,9.54807680523,1.0,0.0,0.0,0.0,1.0,0.0,0.0,0.0,1.0
1489584294344567855,126,1489584294342007546,,23.6597690582,-133.350708008,-2.1029381752,0.00388600002043,1.0,0.0,0.0,0.0,1.0,0.0,0.0,0.0,1.0,0.365853667259,4.45121955872,-1.46341466904,1.0,0.0,0.0,0.0,1.0,0.0,0.0,0.0,1.0,1.77649763184,-3.26090266113,9.44751916645,1.0,0.0,0.0,0.0,1.0,0.0,0.0,0.0,1.0
1489584294373708487,127,1489584294363995221,,23.0951042175,-132.702713013,-2.8084564209,0.00267899991013,1.0,0.0,0.0,0.0,1.0,0.0,0.0,0.0,1.0,0.365853667259,3.17073178291,-0.670731723309,1.0,0.0,0.0,0.0,1.0,0.0,0.0,0.0,1.0,1.66636435547,-2.97359846191,9.55765361187,1.0,0.0,0.0,0.0,1.0,0.0,0.0,0.0,1.0
1489584294393486113,128,1489584294384482794,,22.5855808258,-132.070037842,-3.4759914875,0.00262199994177,1.0,0.0,0.0,0.0,1.0,0.0,0.0,0.0,1.0,0.365853667259,2.56097555161,-0.304878056049,1.0,0.0,0.0,0.0,1.0,0.0,0.0,0.0,1.0,1.6041151123,-3.01190568848,9.44273076313,1.0,0.0,0.0,0.0,1.0,0.0,0.0,0.0,1.0
1489584294411819627,129,1489584294406913958,,22.0440483093,-131.389678955,-4.19080543518,0.00256199995056,1.0,0.0,0.0,0.0,1.0,0.0,0.0,0.0,1.0,0.0609756112099,2.13414645195,-0.426829278469,1.0,0.0,0.0,0.0,1.0,0.0,0.0,0.0,1.0,1.98718737793,-3.20823022461,9.58638403179,1.0,0.0,0.0,0.0,1.0,0.0,0.0,0.0,1.0
1489584294437104849,130,1489584294430952046,,21.4711856842,-130.636962891,-4.97559404373,0.00332899997011,1.0,0.0,0.0,0.0,1.0,0.0,0.0,0.0,1.0,-0.0609756112099,2.74390244484,-0.18292683363,1.0,0.0,0.0,0.0,1.0,0.0,0.0,0.0,1.0,1.92493813477,-3.10767375488,9.47624958638,1.0,0.0,0.0,0.0,1.0,0.0,0.0,0.0,1.0
1489584294456295341,131,1489584294453734511,,20.9505729675,-129.941894531,-5.68580722809,0.00295599992387,1.0,0.0,0.0,0.0,1.0,0.0,0.0,0.0,1.0,0.0,2.25609779358,-0.548780500889,1.0,0.0,0.0,0.0,1.0,0.0,0.0,0.0,1.0,1.76213242187,-3.05021291504,9.38526992329,1.0,0.0,0.0,0.0,1.0,0.0,0.0,0.0,1.0
1489584294477844318,132,1489584294475527603,,20.415096283,-129.190368652,-6.42622852325,0.00424000015482,1.0,0.0,0.0,0.0,1.0,0.0,0.0,0.0,1.0,-0.304878056049,1.8292683363,-0.18292683363,1.0,0.0,0.0,0.0,1.0,0.0,0.0,0.0,1.0,1.71424838867,-3.13161577148,9.47146118306,1.0,0.0,0.0,0.0,1.0,0.0,0.0,0.0,1.0
1489584294499839857,133,1489584294497628767,,19.8835983276,-128.390151978,-7.185546875,0.00465800007805,1.0,0.0,0.0,0.0,1.0,0.0,0.0,0.0,1.0,0.304878056049,1.58536589146,-0.365853667259,1.0,0.0,0.0,0.0,1.0,0.0,0.0,0.0,1.0,1.77649763184,-3.21301862793,9.4954043687,1.0,0.0,0.0,0.0,1.0,0.0,0.0,0.0,1.0
1489584294521314773,134,1489584294519146807,,19.3691978455,-127.590965271,-7.93636608124,0.00311199994758,1.0,0.0,0.0,0.0,1.0,0.0,0.0,0.0,1.0,0.426829278469,2.31707310677,-0.0609756112099,1.0,0.0,0.0,0.0,1.0,0.0,0.0,0.0,1.0,1.85311208496,-3.23217224121,9.38048151997,1.0,0.0,0.0,0.0,1.0,0.0,0.0,0.0,1.0
1489584294542375782,135,1489584294540246410,,18.8847446442,-126.80443573,-8.67285633087,0.00469599990174,1.0,0.0,0.0,0.0,1.0,0.0,0.0,0.0,1.0,0.487804889679,2.56097555161,-0.426829278469,1.0,0.0,0.0,0.0,1.0,0.0,0.0,0.0,1.0,1.81001645508,-3.04542451172,9.58638403179,1.0,0.0,0.0,0.0,1.0,0.0,0.0,0.0,1.0
1489584294563429865,136,1489584294561115389,,18.3819446564,-126.018325806,-9.39459705353,0.00264200009406,1.0,0.0,0.0,0.0,1.0,0.0,0.0,0.0,1.0,0.548780500889,2.68292689323,-1.09756100178,1.0,0.0,0.0,0.0,1.0,0.0,0.0,0.0,1.0,2.06380183105,-3.04542451172,9.5193463853,1.0,0.0,0.0,0.0,1.0,0.0,0.0,0.0,1.0
1489584294585797487,137,1489584294583506084,,17.8698387146,-125.16532135,-10.1844987869,0.00309400004335,1.0,0.0,0.0,0.0,1.0,0.0,0.0,0.0,1.0,0.243902444839,3.41463422775,-0.731707334518,1.0,0.0,0.0,0.0,1.0,0.0,0.0,0.0,1.0,1.89141931152,-2.87783039551,9.55765361187,1.0,0.0,0.0,0.0,1.0,0.0,0.0,0.0,1.0
1489584294605308395,138,1489584294603734491,,17.3935031891,-124.327941895,-10.9272184372,0.00240899994969,1.0,0.0,0.0,0.0,1.0,0.0,0.0,0.0,1.0,0.853658556938,3.23170733452,-1.15853655338,1.0,0.0,0.0,0.0,1.0,0.0,0.0,0.0,1.0,1.73340200195,-3.03584770508,9.68693991699,1.0,0.0,0.0,0.0,1.0,0.0,0.0,0.0,1.0
1489584294636075327,139,1489584294634714756,,16.9024429321,-123.444946289,-11.7190303802,0.00243799993768,1.0,0.0,0.0,0.0,1.0,0.0,0.0,0.0,1.0,0.487804889679,3.71951246262,-1.2804877758,1.0,0.0,0.0,0.0,1.0,0.0,0.0,0.0,1.0,1.79565124512,-3.03584770508,9.69651672363,1.0,0.0,0.0,0.0,1.0,0.0,0.0,0.0,1.0
1489584294650391607,140,1489584294648698328,,16.3646087646,-122.523895264,-12.5369253159,0.00366299995221,1.0,0.0,0.0,0.0,1.0,0.0,0.0,0.0,1.0,0.365853667259,3.47560977936,-1.2195122242,1.0,0.0,0.0,0.0,1.0,0.0,0.0,0.0,1.0,1.71903679199,-2.99754047852,9.56723041851,1.0,0.0,0.0,0.0,1.0,0.0,0.0,0.0,1.0
1489584294675047038,141,1489584294673756884,,15.8386297226,-121.515060425,-13.4140644073,0.00388700002804,1.0,0.0,0.0,0.0,1.0,0.0,0.0,0.0,1.0,-0.304878056049,3.23170733452,-1.03658533096,1.0,0.0,0.0,0.0,1.0,0.0,0.0,0.0,1.0,1.71903679199,-3.0885201416,9.55286520855,1.0,0.0,0.0,0.0,1.0,0.0,0.0,0.0,1.0
1489584294695561017,142,1489584294694156749,,15.4251098633,-120.611824036,-14.1842460632,0.00379800004885,1.0,0.0,0.0,0.0,1.0,0.0,0.0,0.0,1.0,0.0609756112099,4.08536577225,0.0,1.0,0.0,0.0,0.0,1.0,0.0,0.0,0.0,1.0,1.76213242187,-3.05021291504,9.62947966167,1.0,0.0,0.0,0.0,1.0,0.0,0.0,0.0,1.0
1489584294714548488,143,1489584294713345730,,15.0100641251,-119.682868958,-14.9834270477,0.00404499983415,1.0,0.0,0.0,0.0,1.0,0.0,0.0,0.0,1.0,-0.0609756112099,1.8902438879,0.12195122242,1.0,0.0,0.0,0.0,1.0,0.0,0.0,0.0,1.0,1.66636435547,-2.9927520752,9.43315395649,1.0,0.0,0.0,0.0,1.0,0.0,0.0,0.0,1.0
1489584294738746733,144,1489584294736943662,,14.5680656433,-118.594535828,-15.8360271454,0.00339299999177,1.0,0.0,0.0,0.0,1.0,0.0,0.0,0.0,1.0,-0.0609756112099,0.670731723309,0.853658556938,1.0,0.0,0.0,0.0,1.0,0.0,0.0,0.0,1.0,1.86747729492,-3.06936652832,9.42357714985,1.0,0.0,0.0,0.0,1.0,0.0,0.0,0.0,1.0
1489584294762969873,145,1489584294760126700,,14.1661081314,-117.517425537,-16.671628952,0.00280099990778,1.0,0.0,0.0,0.0,1.0,0.0,0.0,0.0,1.0,0.304878056049,0.365853667259,1.15853655338,1.0,0.0,0.0,0.0,1.0,0.0,0.0,0.0,1.0,1.68551796875,-3.14119257812,9.52413478862,1.0,0.0,0.0,0.0,1.0,0.0,0.0,0.0,1.0
1489584294784695777,146,1489584294782450728,,13.807009697,-116.471549988,-17.4483261108,0.0035069999285,1.0,0.0,0.0,0.0,1.0,0.0,0.0,0.0,1.0,0.365853667259,0.548780500889,1.58536589146,1.0,0.0,0.0,0.0,1.0,0.0,0.0,0.0,1.0,1.99676418457,-3.28484467773,9.49061596538,1.0,0.0,0.0,0.0,1.0,0.0,0.0,0.0,1.0
1489584294806709962,147,1489584294805122517,,13.4213809967,-115.364776611,-18.2539348602,0.00288100005127,1.0,0.0,0.0,0.0,1.0,0.0,0.0,0.0,1.0,0.12195122242,-0.0609756112099,1.03658533096,1.0,0.0,0.0,0.0,1.0,0.0,0.0,0.0,1.0,1.92493813477,-3.1364041748,9.52892319194,1.0,0.0,0.0,0.0,1.0,0.0,0.0,0.0,1.0
1489584294837696686,148,1489584294836053824,,12.9252557755,-113.886413574,-19.341758728,0.00979399960488,1.0,0.0,0.0,0.0,1.0,0.0,0.0,0.0,1.0,0.0609756112099,1.76829278469,0.853658556938,1.0,0.0,0.0,0.0,1.0,0.0,0.0,0.0,1.0,1.95366855469,-3.16513459473,9.39963513325,1.0,0.0,0.0,0.0,1.0,0.0,0.0,0.0,1.0
1489584294857340666,149,1489584294855779106,,12.557135582,-112.82093811,-20.1177349091,0.00607899995521,1.0,0.0,0.0,0.0,1.0,0.0,0.0,0.0,1.0,0.18292683363,2.62195134163,-0.487804889679,1.0,0.0,0.0,0.0,1.0,0.0,0.0,0.0,1.0,2.00155258789,-2.98796367187,9.55765361187,1.0,0.0,0.0,0.0,1.0,0.0,0.0,0.0,1.0
1489584294880510371,150,1489584294879166414,,12.1509943008,-111.666061401,-20.9800205231,0.00323799997568,1.0,0.0,0.0,0.0,1.0,0.0,0.0,0.0,1.0,-0.0609756112099,4.45121955872,-0.731707334518,1.0,0.0,0.0,0.0,1.0,0.0,0.0,0.0,1.0,1.94888015137,-3.03105930176,9.60074924175,1.0,0.0,0.0,0.0,1.0,0.0,0.0,0.0,1.0
1489584294905129239,151,1489584294903762314,,11.7167472839,-110.424468994,-21.9015827179,0.0041490001604,1.0,0.0,0.0,0.0,1.0,0.0,0.0,0.0,1.0,-0.0609756112099,4.87804889679,-1.46341466904,1.0,0.0,0.0,0.0,1.0,0.0,0.0,0.0,1.0,1.93930334473,-3.1124621582,9.49061596538,1.0,0.0,0.0,0.0,1.0,0.0,0.0,0.0,1.0
1489584294935589193,152,1489584294924624730,,11.3411693573,-109.289237976,-22.742805481,0.00252699991688,1.0,0.0,0.0,0.0,1.0,0.0,0.0,0.0,1.0,-0.12195122242,5.0,-1.58536589146,1.0,0.0,0.0,0.0,1.0,0.0,0.0,0.0,1.0,1.66636435547,-2.93050283203,9.65342167827,1.0,0.0,0.0,0.0,1.0,0.0,0.0,0.0,1.0
1489584294947751726,153,1489584294946046833,,10.9922428131,-108.132598877,-23.5746593475,0.00251500005834,1.0,0.0,0.0,0.0,1.0,0.0,0.0,0.0,1.0,0.18292683363,4.87804889679,-1.64634156227,1.0,0.0,0.0,0.0,1.0,0.0,0.0,0.0,1.0,1.75734401855,-3.20823022461,9.52413478862,1.0,0.0,0.0,0.0,1.0,0.0,0.0,0.0,1.0
1489584294970446379,154,1489584294968646278,,10.6475610733,-106.913009644,-24.4240913391,0.00261400011368,1.0,0.0,0.0,0.0,1.0,0.0,0.0,0.0,1.0,-0.304878056049,3.7804877758,-1.15853655338,1.0,0.0,0.0,0.0,1.0,0.0,0.0,0.0,1.0,1.6041151123,-3.09809694824,9.57680722515,1.0,0.0,0.0,0.0,1.0,0.0,0.0,0.0,1.0
1489584294994191603,155,1489584294991662753,,10.3463497162,-105.665763855,-25.2301921844,0.00319799990393,1.0,0.0,0.0,0.0,1.0,0.0,0.0,0.0,1.0,0.609756112099,2.86585378647,-0.18292683363,1.0,0.0,0.0,0.0,1.0,0.0,0.0,0.0,1.0,1.62326872559,-3.14119257812,9.45230756977,1.0,0.0,0.0,0.0,1.0,0.0,0.0,0.0,1.0
1489584295016067820,156,1489584295014271521,,10.0689916611,-104.395843506,-26.0220184326,0.00398099981248,1.0,0.0,0.0,0.0,1.0,0.0,0.0,0.0,1.0,0.304878056049,1.76829278469,-0.426829278469,1.0,0.0,0.0,0.0,1.0,0.0,0.0,0.0,1.0,1.72382519531,-3.1364041748,9.40921193989,1.0,0.0,0.0,0.0,1.0,0.0,0.0,0.0,1.0
1489584295038082630,157,1489584295036423883,,9.83428096771,-103.17061615,-26.7491035461,0.0035069999285,1.0,0.0,0.0,0.0,1.0,0.0,0.0,0.0,1.0,0.670731723309,1.70731711388,0.487804889679,1.0,0.0,0.0,0.0,1.0,0.0,0.0,0.0,1.0,1.72382519531,-3.03584770508,9.61511445171,1.0,0.0,0.0,0.0,1.0,0.0,0.0,0.0,1.0
1489584295062145510,158,1489584295059863639,,9.61434555054,-101.856407166,-27.5044231415,0.00415100017563,1.0,0.0,0.0,0.0,1.0,0.0,0.0,0.0,1.0,0.243902444839,1.03658533096,0.365853667259,1.0,0.0,0.0,0.0,1.0,0.0,0.0,0.0,1.0,1.75734401855,-3.06936652832,9.4954043687,1.0,0.0,0.0,0.0,1.0,0.0,0.0,0.0,1.0
1489584295083967404,159,1489584295081598345,,9.39272594452,-100.547698975,-28.239107132,0.00334600009955,1.0,0.0,0.0,0.0,1.0,0.0,0.0,0.0,1.0,0.18292683363,1.2195122242,0.731707334518,1.0,0.0,0.0,0.0,1.0,0.0,0.0,0.0,1.0,1.88184250488,-3.0885201416,9.50019277202,1.0,0.0,0.0,0.0,1.0,0.0,0.0,0.0,1.0
1489584295104171123,160,1489584295101189565,,9.21434688568,-99.3586196899,-28.8967857361,0.00267999991775,1.0,0.0,0.0,0.0,1.0,0.0,0.0,0.0,1.0,0.243902444839,1.09756100178,0.487804889679,1.0,0.0,0.0,0.0,1.0,0.0,0.0,0.0,1.0,1.8626888916,-3.05021291504,9.58159562847,1.0,0.0,0.0,0.0,1.0,0.0,0.0,0.0,1.0
1489584295128980252,161,1489584295123011824,,9.02851772308,-98.0894470215,-29.6051635742,0.00299900001846,1.0,0.0,0.0,0.0,1.0,0.0,0.0,0.0,1.0,0.12195122242,2.25609779358,0.853658556938,1.0,0.0,0.0,0.0,1.0,0.0,0.0,0.0,1.0,1.87226569824,-3.10767375488,9.52892319194,1.0,0.0,0.0,0.0,1.0,0.0,0.0,0.0,1.0
1489584295148705066,162,1489584295146713819,,8.83048820496,-96.7308120728,-30.3257484436,0.00316000008024,1.0,0.0,0.0,0.0,1.0,0.0,0.0,0.0,1.0,0.12195122242,2.13414645195,0.18292683363,1.0,0.0,0.0,0.0,1.0,0.0,0.0,0.0,1.0,1.95845695801,-3.14119257812,9.60074924175,1.0,0.0,0.0,0.0,1.0,0.0,0.0,0.0,1.0
1489584295173377320,163,1489584295169510294,,8.65495967865,-95.3838806152,-31.059879303,0.0029490001034,1.0,0.0,0.0,0.0,1.0,0.0,0.0,0.0,1.0,0.12195122242,2.56097555161,0.304878056049,1.0,0.0,0.0,0.0,1.0,0.0,0.0,0.0,1.0,1.7908628418,-2.93529123535,9.56244201519,1.0,0.0,0.0,0.0,1.0,0.0,0.0,0.0,1.0
1489584295196322493,164,1489584295193089581,,8.47730445862,-94.0159301758,-31.7737846375,0.0031940001063,1.0,0.0,0.0,0.0,1.0,0.0,0.0,0.0,1.0,-0.0609756112099,2.25609779358,-0.304878056049,1.0,0.0,0.0,0.0,1.0,0.0,0.0,0.0,1.0,1.80522805176,-3.01190568848,9.56723041851,1.0,0.0,0.0,0.0,1.0,0.0,0.0,0.0,1.0
1489584295214729288,165,1489584295213027936,,8.32665538788,-92.7869186401,-32.4020957947,0.00402700016275,1.0,0.0,0.0,0.0,1.0,0.0,0.0,0.0,1.0,0.12195122242,2.74390244484,-0.18292683363,1.0,0.0,0.0,0.0,1.0,0.0,0.0,0.0,1.0,1.8148048584,-3.02148249512,9.75397756348,1.0,0.0,0.0,0.0,1.0,0.0,0.0,0.0,1.0
1489584295239381750,166,1489584295237143785,,8.16457939148,-91.3949203491,-33.096446991,0.00336299999617,1.0,0.0,0.0,0.0,1.0,0.0,0.0,0.0,1.0,0.426829278469,2.92682933807,-0.243902444839,1.0,0.0,0.0,0.0,1.0,0.0,0.0,0.0,1.0,1.68551796875,-3.05500131836,9.58638403179,1.0,0.0,0.0,0.0,1.0,0.0,0.0,0.0,1.0
1489584295259751823,167,1489584295257142921,,8.02483272552,-90.1632080078,-33.7113113403,0.00293900002725,1.0,0.0,0.0,0.0,1.0,0.0,0.0,0.0,1.0,0.548780500889,2.74390244484,-0.670731723309,1.0,0.0,0.0,0.0,1.0,0.0,0.0,0.0,1.0,1.838746875,-3.08373173828,9.5193463853,1.0,0.0,0.0,0.0,1.0,0.0,0.0,0.0,1.0
1489584295281849238,168,1489584295279832626,,7.88909769058,-88.8235092163,-34.3644256592,0.00259599997662,1.0,0.0,0.0,0.0,1.0,0.0,0.0,0.0,1.0,-0.0609756112099,3.29268312454,-0.670731723309,1.0,0.0,0.0,0.0,1.0,0.0,0.0,0.0,1.0,1.7908628418,-3.07415493164,9.58638403179,1.0,0.0,0.0,0.0,1.0,0.0,0.0,0.0,1.0
1489584295305573837,169,1489584295302334363,,7.75770664215,-87.5007400513,-34.9873886108,0.00245200004429,1.0,0.0,0.0,0.0,1.0,0.0,0.0,0.0,1.0,-0.487804889679,2.98780488968,-0.731707334518,1.0,0.0,0.0,0.0,1.0,0.0,0.0,0.0,1.0,1.85790048828,-3.20344182129,9.49061596538,1.0,0.0,0.0,0.0,1.0,0.0,0.0,0.0,1.0
1489584295325828545,170,1489584295323293706,,7.64499092102,-86.2911148071,-35.5408248901,0.00255300011486,1.0,0.0,0.0,0.0,1.0,0.0,0.0,0.0,1.0,-0.426829278469,3.65853667259,-0.426829278469,1.0,0.0,0.0,0.0,1.0,0.0,0.0,0.0,1.0,1.75734401855,-2.98796367187,9.48582756206,1.0,0.0,0.0,0.0,1.0,0.0,0.0,0.0,1.0
1489584295348103616,171,1489584295344659819,,7.52671194077,-85.0473632812,-36.0979728699,0.00264400010929,1.0,0.0,0.0,0.0,1.0,0.0,0.0,0.0,1.0,-0.609756112099,2.92682933807,-0.731707334518,1.0,0.0,0.0,0.0,1.0,0.0,0.0,0.0,1.0,1.83395847168,-2.84431157227,9.64384487163,1.0,0.0,0.0,0.0,1.0,0.0,0.0,0.0,1.0
1489584295371155403,172,1489584295367148899,,7.42265939713,-83.8013000488,-36.6228485107,0.00267000007443,1.0,0.0,0.0,0.0,1.0,0.0,0.0,0.0,1.0,-0.487804889679,2.31707310677,-0.853658556938,1.0,0.0,0.0,0.0,1.0,0.0,0.0,0.0,1.0,1.75255561523,-2.98796367187,9.61032604839,1.0,0.0,0.0,0.0,1.0,0.0,0.0,0.0,1.0
1489584295393634067,173,1489584295389895531,,7.33477449417,-82.5083236694,-37.136920929,0.00313200009987,1.0,0.0,0.0,0.0,1.0,0.0,0.0,0.0,1.0,-0.426829278469,1.46341466904,0.0609756112099,1.0,0.0,0.0,0.0,1.0,0.0,0.0,0.0,1.0,1.68551796875,-3.18907661133,9.50019277202,1.0,0.0,0.0,0.0,1.0,0.0,0.0,0.0,1.0
1489584295414883983,174,1489584295412343361,,7.26391220093,-81.192237854,-37.6184082031,0.00350199989043,1.0,0.0,0.0,0.0,1.0,0.0,0.0,0.0,1.0,-0.0609756112099,0.609756112099,0.853658556938,1.0,0.0,0.0,0.0,1.0,0.0,0.0,0.0,1.0,1.61848032227,-3.09809694824,9.57201882183,1.0,0.0,0.0,0.0,1.0,0.0,0.0,0.0,1.0
1489584295434324370,175,1489584295432908851,,7.19264745712,-80.0085449219,-38.0139160156,0.00446699978784,1.0,0.0,0.0,0.0,1.0,0.0,0.0,0.0,1.0,0.0,0.18292683363,0.731707334518,1.0,0.0,0.0,0.0,1.0,0.0,0.0,0.0,1.0,1.74297880859,-3.11725056152,9.56244201519,1.0,0.0,0.0,0.0,1.0,0.0,0.0,0.0,1.0
1489584295457735428,176,1489584295456115326,,7.11484098434,-78.7063293457,-38.4354629517,0.0034380001016,1.0,0.0,0.0,0.0,1.0,0.0,0.0,0.0,1.0,0.18292683363,0.365853667259,0.975609779358,1.0,0.0,0.0,0.0,1.0,0.0,0.0,0.0,1.0,1.85311208496,-3.13161577148,9.48582756206,1.0,0.0,0.0,0.0,1.0,0.0,0.0,0.0,1.0
1489584295478516750,177,1489584295476820190,,7.04731845856,-77.553276062,-38.7925491333,0.00313200009987,1.0,0.0,0.0,0.0,1.0,0.0,0.0,0.0,1.0,0.12195122242,0.609756112099,0.914634168148,1.0,0.0,0.0,0.0,1.0,0.0,0.0,0.0,1.0,1.95845695801,-3.07415493164,9.52892319194,1.0,0.0,0.0,0.0,1.0,0.0,0.0,0.0,1.0
1489584295500370623,178,1489584295498261720,,6.96968173981,-76.3935928345,-39.148109436,0.00361900008284,1.0,0.0,0.0,0.0,1.0,0.0,0.0,0.0,1.0,0.243902444839,0.853658556938,0.670731723309,1.0,0.0,0.0,0.0,1.0,0.0,0.0,0.0,1.0,1.93451494141,-3.09330854492,9.45230756977,1.0,0.0,0.0,0.0,1.0,0.0,0.0,0.0,1.0
1489584295522017830,179,1489584295520246426,,6.88050699234,-75.1164932251,-39.5551681519,0.00303000002168,1.0,0.0,0.0,0.0,1.0,0.0,0.0,0.0,1.0,0.12195122242,1.8292683363,0.12195122242,1.0,0.0,0.0,0.0,1.0,0.0,0.0,0.0,1.0,1.96324536133,-2.97359846191,9.4954043687,1.0,0.0,0.0,0.0,1.0,0.0,0.0,0.0,1.0
1489584295545466179,180,1489584295543420349,,6.79512166977,-73.8498153687,-39.9665641785,0.00301199988462,1.0,0.0,0.0,0.0,1.0,0.0,0.0,0.0,1.0,-0.12195122242,2.86585378647,0.0609756112099,1.0,0.0,0.0,0.0,1.0,0.0,0.0,0.0,1.0,1.87226569824,-2.98317526855,9.61990285503,1.0,0.0,0.0,0.0,1.0,0.0,0.0,0.0,1.0
1489584295569316507,181,1489584295565978075,,6.70647239685,-72.6482849121,-40.356803894,0.00254000001587,1.0,0.0,0.0,0.0,1.0,0.0,0.0,0.0,1.0,-0.304878056049,3.35365867615,-0.548780500889,1.0,0.0,0.0,0.0,1.0,0.0,0.0,0.0,1.0,2.00155258789,-3.02148249512,9.62469125835,1.0,0.0,0.0,0.0,1.0,0.0,0.0,0.0,1.0
1489584295592329024,182,1489584295590378090,,6.62840843201,-71.4534072876,-40.7472038269,0.0026750001125,1.0,0.0,0.0,0.0,1.0,0.0,0.0,0.0,1.0,-0.304878056049,3.23170733452,-0.853658556938,1.0,0.0,0.0,0.0,1.0,0.0,0.0,0.0,1.0,1.74776721191,-3.1124621582,9.47146118306,1.0,0.0,0.0,0.0,1.0,0.0,0.0,0.0,1.0
1489584295614204460,183,1489584295612247796,,6.53219985962,-70.237953186,-41.1209945679,0.00417299987748,1.0,0.0,0.0,0.0,1.0,0.0,0.0,0.0,1.0,-0.243902444839,3.17073178291,-0.914634168148,1.0,0.0,0.0,0.0,1.0,0.0,0.0,0.0,1.0,1.72861359863,-3.05500131836,9.52413478862,1.0,0.0,0.0,0.0,1.0,0.0,0.0,0.0,1.0
1489584295637185935,184,1489584295633641722,,6.44386100769,-69.1397018433,-41.446105957,0.00327500002459,1.0,0.0,0.0,0.0,1.0,0.0,0.0,0.0,1.0,-0.304878056049,3.17073178291,-0.975609779358,1.0,0.0,0.0,0.0,1.0,0.0,0.0,0.0,1.0,1.75734401855,-2.99754047852,9.56723041851,1.0,0.0,0.0,0.0,1.0,0.0,0.0,0.0,1.0
1489584295658584288,185,1489584295656052417,,6.34516716003,-68.0305404663,-41.7591209412,0.00258399988525,1.0,0.0,0.0,0.0,1.0,0.0,0.0,0.0,1.0,-0.365853667259,2.68292689323,-0.853658556938,1.0,0.0,0.0,0.0,1.0,0.0,0.0,0.0,1.0,1.82917006836,-3.13161577148,9.5193463853,1.0,0.0,0.0,0.0,1.0,0.0,0.0,0.0,1.0
1489584295684213572,186,1489584295678396706,,6.24324369431,-66.9047851562,-42.0472831726,0.00260900007561,1.0,0.0,0.0,0.0,1.0,0.0,0.0,0.0,1.0,0.609756112099,2.86585378647,-0.609756112099,1.0,0.0,0.0,0.0,1.0,0.0,0.0,0.0,1.0,1.81001645508,-3.13161577148,9.52413478862,1.0,0.0,0.0,0.0,1.0,0.0,0.0,0.0,1.0
1489584295702763648,187,1489584295700900369,,6.1454949379,-65.7954406738,-42.3369865417,0.00249599991366,1.0,0.0,0.0,0.0,1.0,0.0,0.0,0.0,1.0,0.243902444839,2.92682933807,-0.609756112099,1.0,0.0,0.0,0.0,1.0,0.0,0.0,0.0,1.0,1.84832368164,-3.03105930176,9.65821008159,1.0,0.0,0.0,0.0,1.0,0.0,0.0,0.0,1.0
1489584295726026841,188,1489584295722329347,,6.04542541504,-64.7656784058,-42.598274231,0.00248000002466,1.0,0.0,0.0,0.0,1.0,0.0,0.0,0.0,1.0,0.12195122242,2.86585378647,-0.18292683363,1.0,0.0,0.0,0.0,1.0,0.0,0.0,0.0,1.0,1.84832368164,-2.98796367187,9.61511445171,1.0,0.0,0.0,0.0,1.0,0.0,0.0,0.0,1.0
1489584295745148687,189,1489584295743245148,,5.95275449753,-63.7828941345,-42.8433876038,0.00261899991892,1.0,0.0,0.0,0.0,1.0,0.0,0.0,0.0,1.0,0.0,3.17073178291,-0.426829278469,1.0,0.0,0.0,0.0,1.0,0.0,0.0,0.0,1.0,1.74297880859,-2.94486804199,9.56244201519,1.0,0.0,0.0,0.0,1.0,0.0,0.0,0.0,1.0
1489584295767941361,190,1489584295765527875,,5.85230302811,-62.7389755249,-43.0879478455,0.00248700007796,1.0,0.0,0.0,0.0,1.0,0.0,0.0,0.0,1.0,0.426829278469,2.62195134163,-0.304878056049,1.0,0.0,0.0,0.0,1.0,0.0,0.0,0.0,1.0,1.67115275879,-3.03584770508,9.5432884019,1.0,0.0,0.0,0.0,1.0,0.0,0.0,0.0,1.0
1489584295791148721,191,1489584295789546276,,5.74911546707,-61.7267608643,-43.31407547,0.00247900001705,1.0,0.0,0.0,0.0,1.0,0.0,0.0,0.0,1.0,0.0,2.86585378647,-0.0609756112099,1.0,0.0,0.0,0.0,1.0,0.0,0.0,0.0,1.0,1.88184250488,-2.99754047852,9.56723041851,1.0,0.0,0.0,0.0,1.0,0.0,0.0,0.0,1.0
1489584295812802594,192,1489584295810853951,,5.64488935471,-60.7835693359,-43.5171546936,0.00286399992183,1.0,0.0,0.0,0.0,1.0,0.0,0.0,0.0,1.0,0.18292683363,2.43902444839,-0.304878056049,1.0,0.0,0.0,0.0,1.0,0.0,0.0,0.0,1.0,1.75734401855,-3.03584770508,9.59117243511,1.0,0.0,0.0,0.0,1.0,0.0,0.0,0.0,1.0
1489584295833675323,193,1489584295831969128,,5.52187108994,-59.7700233459,-43.717338562,0.00740600004792,1.0,0.0,0.0,0.0,1.0,0.0,0.0,0.0,1.0,0.0609756112099,2.56097555161,-0.12195122242,1.0,0.0,0.0,0.0,1.0,0.0,0.0,0.0,1.0,1.7908628418,-3.06936652832,9.46667277974,1.0,0.0,0.0,0.0,1.0,0.0,0.0,0.0,1.0
1489584295856047997,194,1489584295853541126,,5.41153097153,-58.8348922729,-43.9053115845,0.00519500020891,1.0,0.0,0.0,0.0,1.0,0.0,0.0,0.0,1.0,0.731707334518,2.86585378647,-0.18292683363,1.0,0.0,0.0,0.0,1.0,0.0,0.0,0.0,1.0,1.82917006836,-3.13161577148,9.55286520855,1.0,0.0,0.0,0.0,1.0,0.0,0.0,0.0,1.0
1489584295876986767,195,1489584295874564323,,5.28388261795,-57.91588974,-44.0917510986,0.00319100008346,1.0,0.0,0.0,0.0,1.0,0.0,0.0,0.0,1.0,0.731707334518,3.90243911743,-0.548780500889,1.0,0.0,0.0,0.0,1.0,0.0,0.0,0.0,1.0,1.83395847168,-3.21780703125,9.50976957866,1.0,0.0,0.0,0.0,1.0,0.0,0.0,0.0,1.0
1489584295899456056,196,1489584295897452569,,5.15259695053,-56.9788856506,-44.311378479,0.00261599989608,1.0,0.0,0.0,0.0,1.0,0.0,0.0,0.0,1.0,0.914634168148,4.14634132385,-2.07317066193,1.0,0.0,0.0,0.0,1.0,0.0,0.0,0.0,1.0,1.77649763184,-3.12203896484,9.60074924175,1.0,0.0,0.0,0.0,1.0,0.0,0.0,0.0,1.0
1489584295920514617,197,1489584295918610922,,5.01657629013,-56.0911445618,-44.5300788879,0.0026469998993,1.0,0.0,0.0,0.0,1.0,0.0,0.0,0.0,1.0,0.609756112099,5.30487823486,-2.5,1.0,0.0,0.0,0.0,1.0,0.0,0.0,0.0,1.0,1.93451494141,-2.96881005859,9.67257470703,1.0,0.0,0.0,0.0,1.0,0.0,0.0,0.0,1.0
1489584295946714578,198,1489584295940638753,,4.89491128922,-55.2130241394,-44.7617988586,0.00274399993941,1.0,0.0,0.0,0.0,1.0,0.0,0.0,0.0,1.0,0.731707334518,6.15853643417,-2.19512200356,1.0,0.0,0.0,0.0,1.0,0.0,0.0,0.0,1.0,1.8148048584,-2.9927520752,9.52892319194,1.0,0.0,0.0,0.0,1.0,0.0,0.0,0.0,1.0
1489584295965138977,199,1489584295963082782,,4.76578521729,-54.32762146,-44.9953651428,0.0025720000267,1.0,0.0,0.0,0.0,1.0,0.0,0.0,0.0,1.0,0.12195122242,5.30487823486,-2.68292689323,1.0,0.0,0.0,0.0,1.0,0.0,0.0,0.0,1.0,1.68551796875,-2.96881005859,9.47624958638,1.0,0.0,0.0,0.0,1.0,0.0,0.0,0.0,1.0
1489584295987961338,200,1489584295985534727,,4.63329553604,-53.4764442444,-45.205532074,0.00264799990691,1.0,0.0,0.0,0.0,1.0,0.0,0.0,0.0,1.0,-0.243902444839,5.06097555161,-2.13414645195,1.0,0.0,0.0,0.0,1.0,0.0,0.0,0.0,1.0,1.73340200195,-2.97359846191,9.48103915874,1.0,0.0,0.0,0.0,1.0,0.0,0.0,0.0,1.0
1489584296010477709,201,1489584296006577611,,4.51583814621,-52.6912498474,-45.3806152344,0.00251800008118,1.0,0.0,0.0,0.0,1.0,0.0,0.0,0.0,1.0,0.243902444839,3.84146332741,-1.95121955872,1.0,0.0,0.0,0.0,1.0,0.0,0.0,0.0,1.0,1.65678754883,-3.05021291504,9.61032604839,1.0,0.0,0.0,0.0,1.0,0.0,0.0,0.0,1.0
1489584296034356319,202,1489584296030496012,,4.37918138504,-51.7980422974,-45.5469017029,0.00582800013945,1.0,0.0,0.0,0.0,1.0,0.0,0.0,0.0,1.0,0.487804889679,2.43902444839,-0.975609779358,1.0,0.0,0.0,0.0,1.0,0.0,0.0,0.0,1.0,1.6041151123,-3.07415493164,9.56723041851,1.0,0.0,0.0,0.0,1.0,0.0,0.0,0.0,1.0
1489584296059550030,203,1489584296054391497,,4.23214960098,-50.9721832275,-45.6590919495,0.00358500005677,1.0,0.0,0.0,0.0,1.0,0.0,0.0,0.0,1.0,0.487804889679,1.2804877758,0.0609756112099,1.0,0.0,0.0,0.0,1.0,0.0,0.0,0.0,1.0,1.70945998535,-3.18428820801,9.55286520855,1.0,0.0,0.0,0.0,1.0,0.0,0.0,0.0,1.0
1489584296080575415,204,1489584296077314326,,4.07560014725,-50.1335639954,-45.7396240234,0.00353499990888,1.0,0.0,0.0,0.0,1.0,0.0,0.0,0.0,1.0,0.792682945728,0.853658556938,0.853658556938,1.0,0.0,0.0,0.0,1.0,0.0,0.0,0.0,1.0,1.70467158203,-3.09809694824,9.61511445171,1.0,0.0,0.0,0.0,1.0,0.0,0.0,0.0,1.0
1489584296103532359,205,1489584296099202678,,3.92163467407,-49.3659439087,-45.7917518616,0.00280099990778,1.0,0.0,0.0,0.0,1.0,0.0,0.0,0.0,1.0,0.670731723309,0.853658556938,1.34146344662,1.0,0.0,0.0,0.0,1.0,0.0,0.0,0.0,1.0,1.92014973145,-3.0406361084,9.47624958638,1.0,0.0,0.0,0.0,1.0,0.0,0.0,0.0,1.0
1489584296124729879,206,1489584296120850666,,3.76632022858,-48.6324691772,-45.8344612122,0.00284500000998,1.0,0.0,0.0,0.0,1.0,0.0,0.0,0.0,1.0,1.15853655338,1.03658533096,1.34146344662,1.0,0.0,0.0,0.0,1.0,0.0,0.0,0.0,1.0,1.87226569824,-3.17949980469,9.56244201519,1.0,0.0,0.0,0.0,1.0,0.0,0.0,0.0,1.0
1489584296144679796,207,1489584296141835478,,3.62848520279,-47.9312667847,-45.8855209351,0.00255000009201,1.0,0.0,0.0,0.0,1.0,0.0,0.0,0.0,1.0,0.487804889679,1.8292683363,1.58536589146,1.0,0.0,0.0,0.0,1.0,0.0,0.0,0.0,1.0,1.89620771484,-3.0406361084,9.43794235981,1.0,0.0,0.0,0.0,1.0,0.0,0.0,0.0,1.0
1489584296166512784,208,1489584296162794092,,3.48669290543,-47.259349823,-45.9409141541,0.00261599989608,1.0,0.0,0.0,0.0,1.0,0.0,0.0,0.0,1.0,0.304878056049,2.74390244484,0.975609779358,1.0,0.0,0.0,0.0,1.0,0.0,0.0,0.0,1.0,1.82917006836,-2.95444484863,9.58638403179,1.0,0.0,0.0,0.0,1.0,0.0,0.0,0.0,1.0
1489584296188129626,209,1489584296183980622,,3.337454319,-46.5974731445,-46.0071640015,0.00245800008997,1.0,0.0,0.0,0.0,1.0,0.0,0.0,0.0,1.0,-0.0609756112099,2.74390244484,0.243902444839,1.0,0.0,0.0,0.0,1.0,0.0,0.0,0.0,1.0,1.72382519531,-2.94965644531,9.64863327495,1.0,0.0,0.0,0.0,1.0,0.0,0.0,0.0,1.0
1489584296208221627,210,1489584296204747934,,3.20456814766,-45.9603614807,-46.085849762,0.00240399991162,1.0,0.0,0.0,0.0,1.0,0.0,0.0,0.0,1.0,-0.12195122242,3.65853667259,0.0609756112099,1.0,0.0,0.0,0.0,1.0,0.0,0.0,0.0,1.0,1.68551796875,-2.97359846191,9.54807680523,1.0,0.0,0.0,0.0,1.0,0.0,0.0,0.0,1.0
1489584296230263937,211,1489584296227194827,,3.09489154816,-45.3033828735,-46.1876449585,0.00324300001375,1.0,0.0,0.0,0.0,1.0,0.0,0.0,0.0,1.0,-0.12195122242,2.98780488968,-0.304878056049,1.0,0.0,0.0,0.0,1.0,0.0,0.0,0.0,1.0,1.65199914551,-2.92092602539,9.65342167827,1.0,0.0,0.0,0.0,1.0,0.0,0.0,0.0,1.0
1489584296252225934,212,1489584296249036096,,2.96143531799,-44.6628417969,-46.2798271179,0.00269500003196,1.0,0.0,0.0,0.0,1.0,0.0,0.0,0.0,1.0,-0.365853667259,3.04878044128,-0.426829278469,1.0,0.0,0.0,0.0,1.0,0.0,0.0,0.0,1.0,1.5562310791,-2.93050283203,9.46667277974,1.0,0.0,0.0,0.0,1.0,0.0,0.0,0.0,1.0
1489584296272996267,213,1489584296270223824,,2.82323312759,-44.073261261,-46.3599815369,0.00264999992214,1.0,0.0,0.0,0.0,1.0,0.0,0.0,0.0,1.0,-0.243902444839,2.5,-0.609756112099,1.0,0.0,0.0,0.0,1.0,0.0,0.0,0.0,1.0,1.67115275879,-2.93529123535,9.50019277202,1.0,0.0,0.0,0.0,1.0,0.0,0.0,0.0,1.0
1489584296294208839,214,1489584296291083636,,2.66560959816,-43.5070533752,-46.427444458,0.00281299999915,1.0,0.0,0.0,0.0,1.0,0.0,0.0,0.0,1.0,-0.548780500889,2.07317066193,-0.609756112099,1.0,0.0,0.0,0.0,1.0,0.0,0.0,0.0,1.0,1.66636435547,-3.07894333496,9.61990285503,1.0,0.0,0.0,0.0,1.0,0.0,0.0,0.0,1.0
1489584296315700525,215,1489584296312404072,,2.50630044937,-42.9408035278,-46.4952392578,0.00275300000794,1.0,0.0,0.0,0.0,1.0,0.0,0.0,0.0,1.0,0.0609756112099,2.07317066193,-0.792682945728,1.0,0.0,0.0,0.0,1.0,0.0,0.0,0.0,1.0,1.77649763184,-3.09330854492,9.47624958638,1.0,0.0,0.0,0.0,1.0,0.0,0.0,0.0,1.0
1489584296335896588,216,1489584296333515185,,2.35457468033,-42.3971290588,-46.5623970032,0.00384699995629,1.0,0.0,0.0,0.0,1.0,0.0,0.0,0.0,1.0,0.0,2.5,-0.548780500889,1.0,0.0,0.0,0.0,1.0,0.0,0.0,0.0,1.0,1.61848032227,-2.94007963867,9.56723041851,1.0,0.0,0.0,0.0,1.0,0.0,0.0,0.0,1.0
1489584296356679421,217,1489584296353977133,,2.20169997215,-41.8490562439,-46.6305580139,0.00553500000387,1.0,0.0,0.0,0.0,1.0,0.0,0.0,0.0,1.0,0.243902444839,2.25609779358,-0.731707334518,1.0,0.0,0.0,0.0,1.0,0.0,0.0,0.0,1.0,1.71903679199,-2.95923325195,9.50976957866,1.0,0.0,0.0,0.0,1.0,0.0,0.0,0.0,1.0
1489584296377658451,218,1489584296375630798,,2.02717232704,-41.3067245483,-46.6916656494,0.00717000011355,1.0,0.0,0.0,0.0,1.0,0.0,0.0,0.0,1.0,0.0,1.76829278469,-0.487804889679,1.0,0.0,0.0,0.0,1.0,0.0,0.0,0.0,1.0,1.79565124512,-2.9927520752,9.50976957866,1.0,0.0,0.0,0.0,1.0,0.0,0.0,0.0,1.0
1489584296400671281,219,1489584296397434255,,1.86711168289,-40.7632293701,-46.7569999695,0.00392600009218,1.0,0.0,0.0,0.0,1.0,0.0,0.0,0.0,1.0,0.0609756112099,2.13414645195,-0.304878056049,1.0,0.0,0.0,0.0,1.0,0.0,0.0,0.0,1.0,1.75734401855,-2.94965644531,9.50976957866,1.0,0.0,0.0,0.0,1.0,0.0,0.0,0.0,1.0
1489584296421363906,220,1489584296419431304,,1.70431780815,-40.2258110046,-46.8166923523,0.00312600005418,1.0,0.0,0.0,0.0,1.0,0.0,0.0,0.0,1.0,-0.18292683363,2.31707310677,0.0609756112099,1.0,0.0,0.0,0.0,1.0,0.0,0.0,0.0,1.0,1.71424838867,-2.97359846191,9.53849999858,1.0,0.0,0.0,0.0,1.0,0.0,0.0,0.0,1.0
1489584296442921008,221,1489584296439938617,,1.5518848896,-39.7353553772,-46.8618278503,0.00397500023246,1.0,0.0,0.0,0.0,1.0,0.0,0.0,0.0,1.0,-0.243902444839,2.01219511032,0.0,1.0,0.0,0.0,0.0,1.0,0.0,0.0,0.0,1.0,1.77170922852,-2.94007963867,9.64863327495,1.0,0.0,0.0,0.0,1.0,0.0,0.0,0.0,1.0
1489584296467023211,222,1489584296463473477,,1.37147164345,-39.2052688599,-46.9010620117,0.00322300009429,1.0,0.0,0.0,0.0,1.0,0.0,0.0,0.0,1.0,-0.426829278469,1.95121955872,0.0609756112099,1.0,0.0,0.0,0.0,1.0,0.0,0.0,0.0,1.0,1.78128603516,-2.93050283203,9.47624958638,1.0,0.0,0.0,0.0,1.0,0.0,0.0,0.0,1.0
1489584296488536303,223,1489584296485620735,,1.21093332767,-38.6995239258,-46.9378814697,0.0028530000709,1.0,0.0,0.0,0.0,1.0,0.0,0.0,0.0,1.0,-0.243902444839,1.34146344662,0.548780500889,1.0,0.0,0.0,0.0,1.0,0.0,0.0,0.0,1.0,1.67594116211,-3.05500131836,9.55286520855,1.0,0.0,0.0,0.0,1.0,0.0,0.0,0.0,1.0
1489584296510670176,224,1489584296508286325,,1.03730285168,-38.2281417847,-46.9596061707,0.00257100001909,1.0,0.0,0.0,0.0,1.0,0.0,0.0,0.0,1.0,0.0609756112099,1.09756100178,0.487804889679,1.0,0.0,0.0,0.0,1.0,0.0,0.0,0.0,1.0,1.71903679199,-3.04542451172,9.43794235981,1.0,0.0,0.0,0.0,1.0,0.0,0.0,0.0,1.0
1489584296534519306,225,1489584296532767381,,0.84648245573,-37.7492141724,-46.9934234619,0.00320899998769,1.0,0.0,0.0,0.0,1.0,0.0,0.0,0.0,1.0,-0.426829278469,1.46341466904,-0.487804889679,1.0,0.0,0.0,0.0,1.0,0.0,0.0,0.0,1.0,1.85311208496,-3.03105930176,9.59117243511,1.0,0.0,0.0,0.0,1.0,0.0,0.0,0.0,1.0
1489584296558203228,226,1489584296555357503,,0.649912416935,-37.3013725281,-47.0472068787,0.00309600005858,1.0,0.0,0.0,0.0,1.0,0.0,0.0,0.0,1.0,-0.18292683363,3.10975623131,-0.853658556938,1.0,0.0,0.0,0.0,1.0,0.0,0.0,0.0,1.0,1.72861359863,-3.12682736816,9.41878874653,1.0,0.0,0.0,0.0,1.0,0.0,0.0,0.0,1.0
1489584296579147988,227,1489584296577328616,,0.475832313299,-36.8439445496,-47.1285667419,0.00322100007907,1.0,0.0,0.0,0.0,1.0,0.0,0.0,0.0,1.0,-0.365853667259,2.98780488968,-1.8292683363,1.0,0.0,0.0,0.0,1.0,0.0,0.0,0.0,1.0,1.73340200195,-2.94007963867,9.63905646831,1.0,0.0,0.0,0.0,1.0,0.0,0.0,0.0,1.0
1489584296601901599,228,1489584296599589519,,0.301216155291,-36.4034156799,-47.221321106,0.00361800007522,1.0,0.0,0.0,0.0,1.0,0.0,0.0,0.0,1.0,-0.0609756112099,2.98780488968,-2.25609779358,1.0,0.0,0.0,0.0,1.0,0.0,0.0,0.0,1.0,1.75734401855,-2.93529123535,9.52413478862,1.0,0.0,0.0,0.0,1.0,0.0,0.0,0.0,1.0
1489584296622391932,229,1489584296620604748,,0.142352387309,-36.0029754639,-47.307056427,0.00298399990425,1.0,0.0,0.0,0.0,1.0,0.0,0.0,0.0,1.0,-0.18292683363,3.17073178291,-2.13414645195,1.0,0.0,0.0,0.0,1.0,0.0,0.0,0.0,1.0,1.75255561523,-2.94965644531,9.60074924175,1.0,0.0,0.0,0.0,1.0,0.0,0.0,0.0,1.0
1489584296647398352,230,1489584296643561587,,-0.0186916664243,-35.5707397461,-47.3920288086,0.00340300006792,1.0,0.0,0.0,0.0,1.0,0.0,0.0,0.0,1.0,0.304878056049,3.47560977936,-1.2804877758,1.0,0.0,0.0,0.0,1.0,0.0,0.0,0.0,1.0,1.58974990234,-2.91613762207,9.46667277974,1.0,0.0,0.0,0.0,1.0,0.0,0.0,0.0,1.0
1489584296673343886,231,1489584296665495617,,-0.186337277293,-35.1660270691,-47.446521759,0.00278400001116,1.0,0.0,0.0,0.0,1.0,0.0,0.0,0.0,1.0,0.243902444839,1.95121955872,-0.548780500889,1.0,0.0,0.0,0.0,1.0,0.0,0.0,0.0,1.0,1.75734401855,-3.02148249512,9.47146118306,1.0,0.0,0.0,0.0,1.0,0.0,0.0,0.0,1.0
1489584296691296098,232,1489584296689190893,,-0.352805405855,-34.7335624695,-47.4885826111,0.0030310000293,1.0,0.0,0.0,0.0,1.0,0.0,0.0,0.0,1.0,0.731707334518,2.13414645195,0.426829278469,1.0,0.0,0.0,0.0,1.0,0.0,0.0,0.0,1.0,1.7908628418,-2.89698400879,9.70609353027,1.0,0.0,0.0,0.0,1.0,0.0,0.0,0.0,1.0
1489584296715915331,233,1489584296711359192,,-0.513345122337,-34.3650283813,-47.5034255981,0.00301399989985,1.0,0.0,0.0,0.0,1.0,0.0,0.0,0.0,1.0,0.548780500889,1.58536589146,0.914634168148,1.0,0.0,0.0,0.0,1.0,0.0,0.0,0.0,1.0,1.85790048828,-3.0885201416,9.50976957866,1.0,0.0,0.0,0.0,1.0,0.0,0.0,0.0,1.0
1489584296741719927,234,1489584296738326703,,-0.703360676765,-33.9309425354,-47.5079307556,0.0055370000191,1.0,0.0,0.0,0.0,1.0,0.0,0.0,0.0,1.0,0.426829278469,1.52439022064,1.2804877758,1.0,0.0,0.0,0.0,1.0,0.0,0.0,0.0,1.0,1.80043964844,-3.00232888184,9.57201882183,1.0,0.0,0.0,0.0,1.0,0.0,0.0,0.0,1.0
1489584296759439067,235,1489584296757786049,,-0.848391711712,-33.5985221863,-47.502494812,0.00368200009689,1.0,0.0,0.0,0.0,1.0,0.0,0.0,0.0,1.0,0.426829278469,1.2195122242,1.46341466904,1.0,0.0,0.0,0.0,1.0,0.0,0.0,0.0,1.0,1.69988317871,-3.07415493164,9.4954043687,1.0,0.0,0.0,0.0,1.0,0.0,0.0,0.0,1.0
1489584296782115959,236,1489584296780368254,,-1.00649631023,-33.233543396,-47.496055603,0.00308499997482,1.0,0.0,0.0,0.0,1.0,0.0,0.0,0.0,1.0,0.243902444839,0.853658556938,1.2804877758,1.0,0.0,0.0,0.0,1.0,0.0,0.0,0.0,1.0,1.73340200195,-2.87783039551,9.67257470703,1.0,0.0,0.0,0.0,1.0,0.0,0.0,0.0,1.0
1489584296803508375,237,1489584296801820409,,-1.17143261433,-32.9134101868,-47.4835510254,0.0032530000899,1.0,0.0,0.0,0.0,1.0,0.0,0.0,0.0,1.0,0.18292683363,1.46341466904,1.2804877758,1.0,0.0,0.0,0.0,1.0,0.0,0.0,0.0,1.0,1.80043964844,-3.04542451172,9.39484672993,1.0,0.0,0.0,0.0,1.0,0.0,0.0,0.0,1.0
1489584296825840789,238,1489584296823360584,,-1.33751010895,-32.5957260132,-47.4887809753,0.00315200001933,1.0,0.0,0.0,0.0,1.0,0.0,0.0,0.0,1.0,0.243902444839,1.58536589146,0.426829278469,1.0,0.0,0.0,0.0,1.0,0.0,0.0,0.0,1.0,1.67115275879,-2.86346518555,9.74440075684,1.0,0.0,0.0,0.0,1.0,0.0,0.0,0.0,1.0
1489584296848669295,239,1489584296846540028,,-1.50454509258,-32.2605438232,-47.5225868225,0.00332799996249,1.0,0.0,0.0,0.0,1.0,0.0,0.0,0.0,1.0,0.243902444839,2.92682933807,-0.243902444839,1.0,0.0,0.0,0.0,1.0,0.0,0.0,0.0,1.0,1.94409174805,-2.93050283203,9.60074924175,1.0,0.0,0.0,0.0,1.0,0.0,0.0,0.0,1.0
1489584296873918632,240,1489584296870117388,,-1.65005004406,-31.9035186768,-47.5886611938,0.00334400008433,1.0,0.0,0.0,0.0,1.0,0.0,0.0,0.0,1.0,0.0,4.02439022064,-1.03658533096,1.0,0.0,0.0,0.0,1.0,0.0,0.0,0.0,1.0,1.82917006836,-2.98317526855,9.42357714985,1.0,0.0,0.0,0.0,1.0,0.0,0.0,0.0,1.0
1489584296896494327,241,1489584296892844697,,-1.77667856216,-31.5806331635,-47.6763687134,0.00286299991421,1.0,0.0,0.0,0.0,1.0,0.0,0.0,0.0,1.0,0.0,3.90243911743,-1.95121955872,1.0,0.0,0.0,0.0,1.0,0.0,0.0,0.0,1.0,1.71903679199,-2.99754047852,9.53371159526,1.0,0.0,0.0,0.0,1.0,0.0,0.0,0.0,1.0
1489584296918601845,242,1489584296916305546,,-1.91272115707,-31.2564277649,-47.7754478455,0.00448699994013,1.0,0.0,0.0,0.0,1.0,0.0,0.0,0.0,1.0,0.304878056049,3.84146332741,-2.19512200356,1.0,0.0,0.0,0.0,1.0,0.0,0.0,0.0,1.0,1.68551796875,-3.05500131836,9.57680722515,1.0,0.0,0.0,0.0,1.0,0.0,0.0,0.0,1.0
1489584296941620404,243,1489584296939911500,,-2.03685855865,-30.9285354614,-47.8704681396,0.00405200012028,1.0,0.0,0.0,0.0,1.0,0.0,0.0,0.0,1.0,0.304878056049,4.20731735229,-1.40243899822,1.0,0.0,0.0,0.0,1.0,0.0,0.0,0.0,1.0,1.6041151123,-3.03584770508,9.50498117534,1.0,0.0,0.0,0.0,1.0,0.0,0.0,0.0,1.0
1489584296963344746,244,1489584296960305636,,-2.14416050911,-30.6496219635,-47.9494819641,0.00346300005913,1.0,0.0,0.0,0.0,1.0,0.0,0.0,0.0,1.0,0.18292683363,3.29268312454,-1.52439022064,1.0,0.0,0.0,0.0,1.0,0.0,0.0,0.0,1.0,1.74776721191,-3.02627089844,9.50019277202,1.0,0.0,0.0,0.0,1.0,0.0,0.0,0.0,1.0
1489584296984425026,245,1489584296982617372,,-2.27127242088,-30.3710842133,-48.0198173523,0.0030769999139,1.0,0.0,0.0,0.0,1.0,0.0,0.0,0.0,1.0,0.12195122242,3.41463422775,-1.15853655338,1.0,0.0,0.0,0.0,1.0,0.0,0.0,0.0,1.0,1.80043964844,-3.00232888184,9.44751916645,1.0,0.0,0.0,0.0,1.0,0.0,0.0,0.0,1.0
1489584297007462387,246,1489584297003962600,,-2.3988032341,-30.1114444733,-48.0754241943,0.00267200008966,1.0,0.0,0.0,0.0,1.0,0.0,0.0,0.0,1.0,0.18292683363,2.98780488968,-0.670731723309,1.0,0.0,0.0,0.0,1.0,0.0,0.0,0.0,1.0,1.75255561523,-2.99754047852,9.55286520855,1.0,0.0,0.0,0.0,1.0,0.0,0.0,0.0,1.0
1489584297037085883,247,1489584297034178387,,-2.53224086761,-29.8556098938,-48.1233787537,0.0034610000439,1.0,0.0,0.0,0.0,1.0,0.0,0.0,0.0,1.0,0.12195122242,3.23170733452,-0.487804889679,1.0,0.0,0.0,0.0,1.0,0.0,0.0,0.0,1.0,1.80522805176,-2.94486804199,9.55765361187,1.0,0.0,0.0,0.0,1.0,0.0,0.0,0.0,1.0
1489584297051969871,248,1489584297047373732,,-2.6167011261,-29.6025905609,-48.1632995605,0.00369099993259,1.0,0.0,0.0,0.0,1.0,0.0,0.0,0.0,1.0,0.12195122242,3.7804877758,0.609756112099,1.0,0.0,0.0,0.0,1.0,0.0,0.0,0.0,1.0,1.75734401855,-2.93529123535,9.57201882183,1.0,0.0,0.0,0.0,1.0,0.0,0.0,0.0,1.0
1489584297072819787,249,1489584297069953020,,-2.7271630764,-29.3484535217,-48.1981658936,0.00450500007719,1.0,0.0,0.0,0.0,1.0,0.0,0.0,0.0,1.0,0.18292683363,1.8902438879,-0.0609756112099,1.0,0.0,0.0,0.0,1.0,0.0,0.0,0.0,1.0,1.70467158203,-2.92571442871,9.55286520855,1.0,0.0,0.0,0.0,1.0,0.0,0.0,0.0,1.0
1489584297094218973,250,1489584297092555851,,-2.84568238258,-29.0888080597,-48.2217979431,0.00381699996069,1.0,0.0,0.0,0.0,1.0,0.0,0.0,0.0,1.0,-0.243902444839,1.58536589146,0.487804889679,1.0,0.0,0.0,0.0,1.0,0.0,0.0,0.0,1.0,1.69030637207,-3.03584770508,9.56723041851,1.0,0.0,0.0,0.0,1.0,0.0,0.0,0.0,1.0
1489584297116003054,251,1489584297114202015,,-2.97957849503,-28.845659256,-48.2417984009,0.00464500021189,1.0,0.0,0.0,0.0,1.0,0.0,0.0,0.0,1.0,-0.548780500889,1.76829278469,0.243902444839,1.0,0.0,0.0,0.0,1.0,0.0,0.0,0.0,1.0,1.78607443848,-2.89219560547,9.53371159526,1.0,0.0,0.0,0.0,1.0,0.0,0.0,0.0,1.0
1489584297138891457,252,1489584297136660054,,-3.11580729485,-28.5896663666,-48.2727584839,0.00502099981532,1.0,0.0,0.0,0.0,1.0,0.0,0.0,0.0,1.0,-0.548780500889,2.31707310677,0.12195122242,1.0,0.0,0.0,0.0,1.0,0.0,0.0,0.0,1.0,1.67594116211,-2.86346518555,9.63905646831,1.0,0.0,0.0,0.0,1.0,0.0,0.0,0.0,1.0
1489584297161877776,253,1489584297160090904,,-3.23528003693,-28.3463726044,-48.3128852844,0.00311499997042,1.0,0.0,0.0,0.0,1.0,0.0,0.0,0.0,1.0,-0.426829278469,2.43902444839,-0.304878056049,1.0,0.0,0.0,0.0,1.0,0.0,0.0,0.0,1.0,1.68072956543,-2.98796367187,9.53371159526,1.0,0.0,0.0,0.0,1.0,0.0,0.0,0.0,1.0
1489584297186148312,254,1489584297183778524,,-3.3533949852,-28.1134376526,-48.362953186,0.00331899989396,1.0,0.0,0.0,0.0,1.0,0.0,0.0,0.0,1.0,-0.609756112099,2.86585378647,-0.548780500889,1.0,0.0,0.0,0.0,1.0,0.0,0.0,0.0,1.0,1.82438166504,-3.00711728516,9.47624958638,1.0,0.0,0.0,0.0,1.0,0.0,0.0,0.0,1.0
1489584297210746191,255,1489584297206126354,,-3.44992184639,-27.9169368744,-48.4177970886,0.00316799990833,1.0,0.0,0.0,0.0,1.0,0.0,0.0,0.0,1.0,-0.914634168148,3.84146332741,-0.670731723309,1.0,0.0,0.0,0.0,1.0,0.0,0.0,0.0,1.0,1.68072956543,-3.03105930176,9.5193463853,1.0,0.0,0.0,0.0,1.0,0.0,0.0,0.0,1.0
1489584297238280993,256,1489584297236243652,,-3.56108808517,-27.7382984161,-48.4777450562,0.00317399995402,1.0,0.0,0.0,0.0,1.0,0.0,0.0,0.0,1.0,-0.792682945728,3.59756112099,-1.2804877758,1.0,0.0,0.0,0.0,1.0,0.0,0.0,0.0,1.0,1.71424838867,-3.09330854492,9.40442353657,1.0,0.0,0.0,0.0,1.0,0.0,0.0,0.0,1.0
1489584297252435867,257,1489584297251278421,,-3.66709518433,-27.5595149994,-48.5393180847,0.00280099990778,1.0,0.0,0.0,0.0,1.0,0.0,0.0,0.0,1.0,-0.548780500889,3.23170733452,-1.2804877758,1.0,0.0,0.0,0.0,1.0,0.0,0.0,0.0,1.0,1.65678754883,-2.97359846191,9.5432884019,1.0,0.0,0.0,0.0,1.0,0.0,0.0,0.0,1.0
1489584297274387865,258,1489584297273085106,,-3.78077054024,-27.327960968,-48.608543396,0.00687400018796,1.0,0.0,0.0,0.0,1.0,0.0,0.0,0.0,1.0,0.0609756112099,2.86585378647,-1.03658533096,1.0,0.0,0.0,0.0,1.0,0.0,0.0,0.0,1.0,1.66636435547,-2.91613762207,9.57201882183,1.0,0.0,0.0,0.0,1.0,0.0,0.0,0.0,1.0
1489584297298498818,259,1489584297296152155,,-3.88628292084,-27.1285305023,-48.6540756226,0.00278199999593,1.0,0.0,0.0,0.0,1.0,0.0,0.0,0.0,1.0,0.12195122242,2.62195134163,-0.243902444839,1.0,0.0,0.0,0.0,1.0,0.0,0.0,0.0,1.0,1.70945998535,-3.064578125,9.56244201519,1.0,0.0,0.0,0.0,1.0,0.0,0.0,0.0,1.0
1489584297317888059,260,1489584297316080874,,-3.973133564,-26.9473190308,-48.6750450134,0.00263900007121,1.0,0.0,0.0,0.0,1.0,0.0,0.0,0.0,1.0,0.0609756112099,1.52439022064,0.12195122242,1.0,0.0,0.0,0.0,1.0,0.0,0.0,0.0,1.0,1.57538469238,-2.93050283203,9.60553764507,1.0,0.0,0.0,0.0,1.0,0.0,0.0,0.0,1.0
1489584297338818079,261,1489584297337076728,,-4.07798576355,-26.783367157,-48.6803359985,0.00306400004774,1.0,0.0,0.0,0.0,1.0,0.0,0.0,0.0,1.0,-0.12195122242,1.2804877758,0.548780500889,1.0,0.0,0.0,0.0,1.0,0.0,0.0,0.0,1.0,1.67594116211,-3.03105930176,9.62947966167,1.0,0.0,0.0,0.0,1.0,0.0,0.0,0.0,1.0
1489584297359888099,262,1489584297358131539,,-4.19678449631,-26.6336574554,-48.6753921509,0.00322200008668,1.0,0.0,0.0,0.0,1.0,0.0,0.0,0.0,1.0,-0.304878056049,0.731707334518,0.609756112099,1.0,0.0,0.0,0.0,1.0,0.0,0.0,0.0,1.0,1.74297880859,-3.00232888184,9.55765361187,1.0,0.0,0.0,0.0,1.0,0.0,0.0,0.0,1.0
1489584297382587752,263,1489584297380668901,,-4.32699584961,-26.4623394012,-48.66822052,0.0026750001125,1.0,0.0,0.0,0.0,1.0,0.0,0.0,0.0,1.0,0.0,1.15853655338,0.792682945728,1.0,0.0,0.0,0.0,1.0,0.0,0.0,0.0,1.0,1.79565124512,-2.91134921875,9.57201882183,1.0,0.0,0.0,0.0,1.0,0.0,0.0,0.0,1.0
1489584297406513236,264,1489584297403254700,,-4.44795513153,-26.2736873627,-48.6659317017,0.00287700002082,1.0,0.0,0.0,0.0,1.0,0.0,0.0,0.0,1.0,0.0,1.15853655338,0.853658556938,1.0,0.0,0.0,0.0,1.0,0.0,0.0,0.0,1.0,1.88184250488,-3.00232888184,9.5193463853,1.0,0.0,0.0,0.0,1.0,0.0,0.0,0.0,1.0
1489584297432683144,265,1489584297430933043,,-4.5332403183,-26.1056270599,-48.670375824,0.00308199995197,1.0,0.0,0.0,0.0,1.0,0.0,0.0,0.0,1.0,-0.0609756112099,2.13414645195,0.975609779358,1.0,0.0,0.0,0.0,1.0,0.0,0.0,0.0,1.0,1.6041151123,-3.00232888184,9.41400034321,1.0,0.0,0.0,0.0,1.0,0.0,0.0,0.0,1.0
1489584297451617542,266,1489584297449934160,,-4.63894891739,-25.929725647,-48.6843795776,0.00354800000787,1.0,0.0,0.0,0.0,1.0,0.0,0.0,0.0,1.0,-0.426829278469,1.76829278469,0.609756112099,1.0,0.0,0.0,0.0,1.0,0.0,0.0,0.0,1.0,1.69988317871,-2.85867678223,9.47624958638,1.0,0.0,0.0,0.0,1.0,0.0,0.0,0.0,1.0
1489584297473404280,267,1489584297471334804,,-4.73801231384,-25.7839717865,-48.702960968,0.00320699997246,1.0,0.0,0.0,0.0,1.0,0.0,0.0,0.0,1.0,-0.792682945728,2.37804889679,0.0609756112099,1.0,0.0,0.0,0.0,1.0,0.0,0.0,0.0,1.0,1.81959326172,-2.98796367187,9.64384487163,1.0,0.0,0.0,0.0,1.0,0.0,0.0,0.0,1.0
1489584297494725497,268,1489584297492028054,,-4.83514213562,-25.6399612427,-48.7332038879,0.00355400005355,1.0,0.0,0.0,0.0,1.0,0.0,0.0,0.0,1.0,-0.365853667259,2.62195134163,-0.426829278469,1.0,0.0,0.0,0.0,1.0,0.0,0.0,0.0,1.0,1.88184250488,-2.94007963867,9.44273076313,1.0,0.0,0.0,0.0,1.0,0.0,0.0,0.0,1.0
1489584297516158902,269,1489584297513196042,,-4.92152500153,-25.4888515472,-48.7787742615,0.00475399987772,1.0,0.0,0.0,0.0,1.0,0.0,0.0,0.0,1.0,-0.12195122242,3.23170733452,-0.731707334518,1.0,0.0,0.0,0.0,1.0,0.0,0.0,0.0,1.0,1.75734401855,-2.97838686523,9.66778688823,1.0,0.0,0.0,0.0,1.0,0.0,0.0,0.0,1.0
1489584297541523916,270,1489584297538613295,,-5.01150512695,-25.3293418884,-48.8331832886,0.00462900009006,1.0,0.0,0.0,0.0,1.0,0.0,0.0,0.0,1.0,-0.548780500889,3.17073178291,-0.731707334518,1.0,0.0,0.0,0.0,1.0,0.0,0.0,0.0,1.0,1.68072956543,-2.9927520752,9.53371159526,1.0,0.0,0.0,0.0,1.0,0.0,0.0,0.0,1.0
1489584297564196173,271,1489584297560395449,,-5.08494329453,-25.1971378326,-48.8762969971,0.00401300005615,1.0,0.0,0.0,0.0,1.0,0.0,0.0,0.0,1.0,-0.487804889679,2.80487799644,-0.487804889679,1.0,0.0,0.0,0.0,1.0,0.0,0.0,0.0,1.0,1.67594116211,-2.94007963867,9.63426806499,1.0,0.0,0.0,0.0,1.0,0.0,0.0,0.0,1.0
1489584297581918906,272,1489584297579943909,,-5.17302894592,-25.0836334229,-48.9096870422,0.00423699989915,1.0,0.0,0.0,0.0,1.0,0.0,0.0,0.0,1.0,-0.243902444839,2.5,-0.914634168148,1.0,0.0,0.0,0.0,1.0,0.0,0.0,0.0,1.0,1.63284553223,-3.02148249512,9.57680722515,1.0,0.0,0.0,0.0,1.0,0.0,0.0,0.0,1.0
1489584297605821318,273,1489584297603434030,,-5.27053070068,-24.9564208984,-48.9326057434,0.00418400019407,1.0,0.0,0.0,0.0,1.0,0.0,0.0,0.0,1.0,0.0,2.31707310677,-0.0609756112099,1.0,0.0,0.0,0.0,1.0,0.0,0.0,0.0,1.0,1.51792385254,-2.86346518555,9.62947966167,1.0,0.0,0.0,0.0,1.0,0.0,0.0,0.0,1.0
1489584297633503098,274,1489584297628322846,,-5.36136054993,-24.8474006653,-48.9491271973,0.0035800000187,1.0,0.0,0.0,0.0,1.0,0.0,0.0,0.0,1.0,0.0,2.43902444839,0.243902444839,1.0,0.0,0.0,0.0,1.0,0.0,0.0,0.0,1.0,1.75734401855,-3.07415493164,9.47624958638,1.0,0.0,0.0,0.0,1.0,0.0,0.0,0.0,1.0
1489584297652580413,275,1489584297648797502,,-5.44116544724,-24.6985492706,-48.9761276245,0.0027499999851,1.0,0.0,0.0,0.0,1.0,0.0,0.0,0.0,1.0,0.243902444839,2.25609779358,0.0,1.0,0.0,0.0,0.0,1.0,0.0,0.0,0.0,1.0,1.68072956543,-2.87783039551,9.50498117534,1.0,0.0,0.0,0.0,1.0,0.0,0.0,0.0,1.0
1489584297675685794,276,1489584297672496633,,-5.52646207809,-24.5502243042,-49.0021476746,0.00387299992144,1.0,0.0,0.0,0.0,1.0,0.0,0.0,0.0,1.0,0.426829278469,2.98780488968,0.18292683363,1.0,0.0,0.0,0.0,1.0,0.0,0.0,0.0,1.0,1.66157595215,-2.9927520752,9.39484672993,1.0,0.0,0.0,0.0,1.0,0.0,0.0,0.0,1.0
1489584297698155031,277,1489584297695368212,,-5.61370229721,-24.4285335541,-49.0149612427,0.00399699993432,1.0,0.0,0.0,0.0,1.0,0.0,0.0,0.0,1.0,0.12195122242,2.5,0.0609756112099,1.0,0.0,0.0,0.0,1.0,0.0,0.0,0.0,1.0,1.70945998535,-2.92092602539,9.48582756206,1.0,0.0,0.0,0.0,1.0,0.0,0.0,0.0,1.0
1489584297719612238,278,1489584297716910054,,-5.68352651596,-24.2930984497,-49.0377731323,0.00376700004563,1.0,0.0,0.0,0.0,1.0,0.0,0.0,0.0,1.0,0.0609756112099,2.56097555161,0.365853667259,1.0,0.0,0.0,0.0,1.0,0.0,0.0,0.0,1.0,1.72382519531,-2.91134921875,9.64863327495,1.0,0.0,0.0,0.0,1.0,0.0,0.0,0.0,1.0
1489584297743241889,279,1489584297739921738,,-5.75496149063,-24.1767730713,-49.0617523193,0.00394900003448,1.0,0.0,0.0,0.0,1.0,0.0,0.0,0.0,1.0,0.18292683363,2.98780488968,0.0609756112099,1.0,0.0,0.0,0.0,1.0,0.0,0.0,0.0,1.0,1.7908628418,-2.97359846191,9.53849999858,1.0,0.0,0.0,0.0,1.0,0.0,0.0,0.0,1.0
1489584297763973837,280,1489584297760999570,,-5.82247924805,-24.0659770966,-49.0865859985,0.00394700001925,1.0,0.0,0.0,0.0,1.0,0.0,0.0,0.0,1.0,-0.18292683363,2.62195134163,-0.18292683363,1.0,0.0,0.0,0.0,1.0,0.0,0.0,0.0,1.0,1.74297880859,-3.05500131836,9.55286520855,1.0,0.0,0.0,0.0,1.0,0.0,0.0,0.0,1.0
1489584297788639997,281,1489584297783618130,,-5.88346290588,-23.9381008148,-49.1164894104,0.00264999992214,1.0,0.0,0.0,0.0,1.0,0.0,0.0,0.0,1.0,0.0609756112099,2.56097555161,0.0609756112099,1.0,0.0,0.0,0.0,1.0,0.0,0.0,0.0,1.0,1.60890351563,-2.85867678223,9.67257470703,1.0,0.0,0.0,0.0,1.0,0.0,0.0,0.0,1.0
1489584297810163245,282,1489584297804458046,,-5.93800878525,-23.8318061829,-49.1428871155,0.00291200005449,1.0,0.0,0.0,0.0,1.0,0.0,0.0,0.0,1.0,-0.12195122242,2.56097555161,0.12195122242,1.0,0.0,0.0,0.0,1.0,0.0,0.0,0.0,1.0,1.59453830566,-2.9927520752,9.5432884019,1.0,0.0,0.0,0.0,1.0,0.0,0.0,0.0,1.0
1489584297834538521,283,1489584297830007538,,-6.00027370453,-23.7255859375,-49.1696968079,0.00316100008786,1.0,0.0,0.0,0.0,1.0,0.0,0.0,0.0,1.0,0.0609756112099,2.74390244484,-0.12195122242,1.0,0.0,0.0,0.0,1.0,0.0,0.0,0.0,1.0,1.60890351563,-2.97838686523,9.50498117534,1.0,0.0,0.0,0.0,1.0,0.0,0.0,0.0,1.0
1489584297853711721,284,1489584297848670739,,-6.05998468399,-23.6528434753,-49.1947631836,0.00371799990535,1.0,0.0,0.0,0.0,1.0,0.0,0.0,0.0,1.0,-0.426829278469,3.23170733452,-0.365853667259,1.0,0.0,0.0,0.0,1.0,0.0,0.0,0.0,1.0,1.6041151123,-2.93050283203,9.52413478862,1.0,0.0,0.0,0.0,1.0,0.0,0.0,0.0,1.0
1489584297874840699,285,1489584297871502944,,-6.1256146431,-23.5585308075,-49.2319869995,0.00277199991979,1.0,0.0,0.0,0.0,1.0,0.0,0.0,0.0,1.0,-0.670731723309,3.10975623131,-0.0609756112099,1.0,0.0,0.0,0.0,1.0,0.0,0.0,0.0,1.0,1.75255561523,-3.03584770508,9.55286520855,1.0,0.0,0.0,0.0,1.0,0.0,0.0,0.0,1.0
1489584297895321293,286,1489584297892865255,,-6.15425157547,-23.4589538574,-49.2587547302,0.00367100001313,1.0,0.0,0.0,0.0,1.0,0.0,0.0,0.0,1.0,-0.670731723309,3.10975623131,0.18292683363,1.0,0.0,0.0,0.0,1.0,0.0,0.0,0.0,1.0,1.55144267578,-2.81558115234,9.57201882183,1.0,0.0,0.0,0.0,1.0,0.0,0.0,0.0,1.0
1489584297916984958,287,1489584297914666836,,-6.2249045372,-23.3669319153,-49.2787475586,0.00362300011329,1.0,0.0,0.0,0.0,1.0,0.0,0.0,0.0,1.0,-0.731707334518,1.46341466904,-0.18292683363,1.0,0.0,0.0,0.0,1.0,0.0,0.0,0.0,1.0,1.69030637207,-2.95444484863,9.46188437642,1.0,0.0,0.0,0.0,1.0,0.0,0.0,0.0,1.0
1489584297943006376,288,1489584297939677892,,-6.31771755219,-23.2734909058,-49.2885551453,0.00449500000104,1.0,0.0,0.0,0.0,1.0,0.0,0.0,0.0,1.0,-0.18292683363,1.34146344662,0.18292683363,1.0,0.0,0.0,0.0,1.0,0.0,0.0,0.0,1.0,1.72382519531,-2.95444484863,9.49061596538,1.0,0.0,0.0,0.0,1.0,0.0,0.0,0.0,1.0
1489584297964161917,289,1489584297961215150,,-6.40271043777,-23.2045955658,-49.2813873291,0.00338899996132,1.0,0.0,0.0,0.0,1.0,0.0,0.0,0.0,1.0,0.243902444839,1.64634156227,0.609756112099,1.0,0.0,0.0,0.0,1.0,0.0,0.0,0.0,1.0,1.81001645508,-3.07415493164,9.35653950337,1.0,0.0,0.0,0.0,1.0,0.0,0.0,0.0,1.0
1489584297987159017,290,1489584297982114806,,-6.46136522293,-23.1176605225,-49.2775306702,0.00330600002781,1.0,0.0,0.0,0.0,1.0,0.0,0.0,0.0,1.0,0.487804889679,1.52439022064,1.09756100178,1.0,0.0,0.0,0.0,1.0,0.0,0.0,0.0,1.0,1.76213242187,-3.12203896484,9.41400034321,1.0,0.0,0.0,0.0,1.0,0.0,0.0,0.0,1.0
1489584298008656953,291,1489584298002601806,,-6.52619028091,-23.0364704132,-49.266834259,0.00310000008903,1.0,0.0,0.0,0.0,1.0,0.0,0.0,0.0,1.0,-0.12195122242,0.792682945728,0.914634168148,1.0,0.0,0.0,0.0,1.0,0.0,0.0,0.0,1.0,1.69030637207,-3.02148249512,9.50019277202,1.0,0.0,0.0,0.0,1.0,0.0,0.0,0.0,1.0
1489584298030932857,292,1489584298024388335,,-6.59965229034,-22.948928833,-49.2638511658,0.00382400001399,1.0,0.0,0.0,0.0,1.0,0.0,0.0,0.0,1.0,0.0609756112099,1.09756100178,0.609756112099,1.0,0.0,0.0,0.0,1.0,0.0,0.0,0.0,1.0,1.67594116211,-3.03584770508,9.60074924175,1.0,0.0,0.0,0.0,1.0,0.0,0.0,0.0,1.0
1489584298054292248,293,1489584298045621740,,-6.67318201065,-22.8667945862,-49.2631340027,0.00356999994256,1.0,0.0,0.0,0.0,1.0,0.0,0.0,0.0,1.0,-0.12195122242,1.46341466904,0.426829278469,1.0,0.0,0.0,0.0,1.0,0.0,0.0,0.0,1.0,1.85311208496,-3.0406361084,9.53371159526,1.0,0.0,0.0,0.0,1.0,0.0,0.0,0.0,1.0
1489584298072795814,294,1489584298067933009,,-6.72756099701,-22.7738952637,-49.2723960876,0.00321900006384,1.0,0.0,0.0,0.0,1.0,0.0,0.0,0.0,1.0,-0.0609756112099,2.19512200356,0.487804889679,1.0,0.0,0.0,0.0,1.0,0.0,0.0,0.0,1.0,1.85790048828,-2.86825358887,9.60074924175,1.0,0.0,0.0,0.0,1.0,0.0,0.0,0.0,1.0
1489584298089908652,295,1489584298087936416,,-6.79218292236,-22.700504303,-49.2920379639,0.00241700001061,1.0,0.0,0.0,0.0,1.0,0.0,0.0,0.0,1.0,0.0,2.62195134163,-0.18292683363,1.0,0.0,0.0,0.0,1.0,0.0,0.0,0.0,1.0,1.73340200195,-2.86346518555,9.55286520855,1.0,0.0,0.0,0.0,1.0,0.0,0.0,0.0,1.0
1489584298110641225,296,1489584298108396853,,-6.84297466278,-22.6240367889,-49.3186302185,0.00256699998863,1.0,0.0,0.0,0.0,1.0,0.0,0.0,0.0,1.0,-0.18292683363,2.68292689323,-0.365853667259,1.0,0.0,0.0,0.0,1.0,0.0,0.0,0.0,1.0,1.73340200195,-2.90177241211,9.53371159526,1.0,0.0,0.0,0.0,1.0,0.0,0.0,0.0,1.0
1489584298136411394,297,1489584298134282855,,-6.90225076675,-22.544965744,-49.3517036438,0.00455400021747,1.0,0.0,0.0,0.0,1.0,0.0,0.0,0.0,1.0,-0.365853667259,2.62195134163,-0.609756112099,1.0,0.0,0.0,0.0,1.0,0.0,0.0,0.0,1.0,1.75734401855,-2.93529123535,9.60074924175,1.0,0.0,0.0,0.0,1.0,0.0,0.0,0.0,1.0
1489584298157482247,298,1489584298155732302,,-6.94539833069,-22.4655456543,-49.3834724426,0.00510299997404,1.0,0.0,0.0,0.0,1.0,0.0,0.0,0.0,1.0,-0.365853667259,2.43902444839,-0.12195122242,1.0,0.0,0.0,0.0,1.0,0.0,0.0,0.0,1.0,1.68551796875,-2.93529123535,9.7348239502,1.0,0.0,0.0,0.0,1.0,0.0,0.0,0.0,1.0
1489584298179779400,299,1489584298177924091,,-6.98363685608,-22.3805274963,-49.4169197083,0.00258599990048,1.0,0.0,0.0,0.0,1.0,0.0,0.0,0.0,1.0,-0.365853667259,2.37804889679,-0.426829278469,1.0,0.0,0.0,0.0,1.0,0.0,0.0,0.0,1.0,1.71424838867,-3.064578125,9.5432884019,1.0,0.0,0.0,0.0,1.0,0.0,0.0,0.0,1.0
1489584298201305774,300,1489584298199252131,,-7.02570295334,-22.3062839508,-49.445514679,0.00253599998541,1.0,0.0,0.0,0.0,1.0,0.0,0.0,0.0,1.0,-0.18292683363,2.5,-0.243902444839,1.0,0.0,0.0,0.0,1.0,0.0,0.0,0.0,1.0,1.72861359863,-3.0166940918,9.65342167827,1.0,0.0,0.0,0.0,1.0,0.0,0.0,0.0,1.0
1489584298223815740,301,1489584298221323920,,-7.06562376022,-22.2273197174,-49.4759712219,0.00247199996375,1.0,0.0,0.0,0.0,1.0,0.0,0.0,0.0,1.0,0.12195122242,2.43902444839,-0.304878056049,1.0,0.0,0.0,0.0,1.0,0.0,0.0,0.0,1.0,1.83395847168,-2.97359846191,9.63426806499,1.0,0.0,0.0,0.0,1.0,0.0,0.0,0.0,1.0
1489584298245557321,302,1489584298243224043,,-7.11238908768,-22.1491603851,-49.5068855286,0.00245100003667,1.0,0.0,0.0,0.0,1.0,0.0,0.0,0.0,1.0,0.12195122242,2.74390244484,-0.243902444839,1.0,0.0,0.0,0.0,1.0,0.0,0.0,0.0,1.0,1.78128603516,-3.01190568848,9.67736311035,1.0,0.0,0.0,0.0,1.0,0.0,0.0,0.0,1.0
1489584298266674320,303,1489584298264100470,,-7.14200639725,-22.0657634735,-49.5401039124,0.0024600001052,1.0,0.0,0.0,0.0,1.0,0.0,0.0,0.0,1.0,0.365853667259,2.86585378647,-0.365853667259,1.0,0.0,0.0,0.0,1.0,0.0,0.0,0.0,1.0,1.74776721191,-3.0166940918,9.46188437642,1.0,0.0,0.0,0.0,1.0,0.0,0.0,0.0,1.0
1489584298288954807,304,1489584298286675539,,-7.17916822433,-21.9887237549,-49.5730323792,0.0025349999778,1.0,0.0,0.0,0.0,1.0,0.0,0.0,0.0,1.0,0.0609756112099,2.74390244484,-0.304878056049,1.0,0.0,0.0,0.0,1.0,0.0,0.0,0.0,1.0,1.81001645508,-3.03584770508,9.62947966167,1.0,0.0,0.0,0.0,1.0,0.0,0.0,0.0,1.0
1489584298311535554,305,1489584298309234984,,-7.20979499817,-21.9164104462,-49.6080093384,0.00296399998479,1.0,0.0,0.0,0.0,1.0,0.0,0.0,0.0,1.0,0.18292683363,2.98780488968,-0.487804889679,1.0,0.0,0.0,0.0,1.0,0.0,0.0,0.0,1.0,1.71903679199,-2.90177241211,9.56244201519,1.0,0.0,0.0,0.0,1.0,0.0,0.0,0.0,1.0
1489584298334148123,306,1489584298330561462,,-7.23196220398,-21.842666626,-49.6381835938,0.00447000004351,1.0,0.0,0.0,0.0,1.0,0.0,0.0,0.0,1.0,-0.0609756112099,2.43902444839,-0.18292683363,1.0,0.0,0.0,0.0,1.0,0.0,0.0,0.0,1.0,1.6041151123,-2.92092602539,9.57680722515,1.0,0.0,0.0,0.0,1.0,0.0,0.0,0.0,1.0
1489584298354047103,307,1489584298352375543,,-7.25395870209,-21.7655601501,-49.6617469788,0.00411899993196,1.0,0.0,0.0,0.0,1.0,0.0,0.0,0.0,1.0,-0.0609756112099,2.07317066193,0.18292683363,1.0,0.0,0.0,0.0,1.0,0.0,0.0,0.0,1.0,1.69030637207,-2.94965644531,9.59117243511,1.0,0.0,0.0,0.0,1.0,0.0,0.0,0.0,1.0
1489584298377058318,308,1489584298375260665,,-7.28835201263,-21.6799259186,-49.6825485229,0.00695999991149,1.0,0.0,0.0,0.0,1.0,0.0,0.0,0.0,1.0,0.0609756112099,1.8902438879,0.365853667259,1.0,0.0,0.0,0.0,1.0,0.0,0.0,0.0,1.0,1.66157595215,-3.01190568848,9.65821008159,1.0,0.0,0.0,0.0,1.0,0.0,0.0,0.0,1.0
1489584298398288390,309,1489584298396521466,,-7.33375072479,-21.6188983917,-49.6927070618,0.00390299991705,1.0,0.0,0.0,0.0,1.0,0.0,0.0,0.0,1.0,0.0,1.70731711388,0.304878056049,1.0,0.0,0.0,0.0,1.0,0.0,0.0,0.0,1.0,1.77170922852,-2.97359846191,9.4570959731,1.0,0.0,0.0,0.0,1.0,0.0,0.0,0.0,1.0
1489584298419887993,310,1489584298418190912,,-7.3833193779,-21.55676651,-49.6992416382,0.00283099990338,1.0,0.0,0.0,0.0,1.0,0.0,0.0,0.0,1.0,0.18292683363,1.46341466904,0.18292683363,1.0,0.0,0.0,0.0,1.0,0.0,0.0,0.0,1.0,1.80043964844,-2.93529123535,9.5193463853,1.0,0.0,0.0,0.0,1.0,0.0,0.0,0.0,1.0
1489584298440062285,311,1489584298438312027,,-7.43540239334,-21.5029239655,-49.7064247131,0.00271999998949,1.0,0.0,0.0,0.0,1.0,0.0,0.0,0.0,1.0,0.0,1.8292683363,0.365853667259,1.0,0.0,0.0,0.0,1.0,0.0,0.0,0.0,1.0,1.81001645508,-2.87783039551,9.58638403179,1.0,0.0,0.0,0.0,1.0,0.0,0.0,0.0,1.0
1489584298460801680,312,1489584298459122881,,-7.47250270844,-21.4405784607,-49.7162818909,0.00260800006799,1.0,0.0,0.0,0.0,1.0,0.0,0.0,0.0,1.0,-0.0609756112099,1.70731711388,0.304878056049,1.0,0.0,0.0,0.0,1.0,0.0,0.0,0.0,1.0,1.69509477539,-2.92571442871,9.52413478862,1.0,0.0,0.0,0.0,1.0,0.0,0.0,0.0,1.0
1489584298482898521,313,1489584298480988108,,-7.51348018646,-21.3763275146,-49.7275009155,0.00292899995111,1.0,0.0,0.0,0.0,1.0,0.0,0.0,0.0,1.0,0.304878056049,1.8902438879,0.12195122242,1.0,0.0,0.0,0.0,1.0,0.0,0.0,0.0,1.0,1.75255561523,-3.08373173828,9.60074924175,1.0,0.0,0.0,0.0,1.0,0.0,0.0,0.0,1.0
1489584298505082342,314,1489584298503386928,,-7.53542661667,-21.3060054779,-49.7515106201,0.00268999999389,1.0,0.0,0.0,0.0,1.0,0.0,0.0,0.0,1.0,0.0609756112099,2.86585378647,-0.18292683363,1.0,0.0,0.0,0.0,1.0,0.0,0.0,0.0,1.0,1.70945998535,-2.91613762207,9.62947966167,1.0,0.0,0.0,0.0,1.0,0.0,0.0,0.0,1.0
1489584298528865430,315,1489584298526328299,,-7.5535736084,-21.2485866547,-49.7831993103,0.0025190000888,1.0,0.0,0.0,0.0,1.0,0.0,0.0,0.0,1.0,0.0609756112099,3.10975623131,-0.609756112099,1.0,0.0,0.0,0.0,1.0,0.0,0.0,0.0,1.0,1.72382519531,-3.07415493164,9.47146118306,1.0,0.0,0.0,0.0,1.0,0.0,0.0,0.0,1.0
1489584298550301127,316,1489584298548101547,,-7.55699539185,-21.1819286346,-49.8279647827,0.002831999911,1.0,0.0,0.0,0.0,1.0,0.0,0.0,0.0,1.0,-0.18292683363,3.47560977936,-0.548780500889,1.0,0.0,0.0,0.0,1.0,0.0,0.0,0.0,1.0,1.68072956543,-2.90656081543,9.61511445171,1.0,0.0,0.0,0.0,1.0,0.0,0.0,0.0,1.0
1489584298575824525,317,1489584298573599893,,-7.56377267838,-21.1189022064,-49.8794937134,0.00348700000905,1.0,0.0,0.0,0.0,1.0,0.0,0.0,0.0,1.0,-0.304878056049,3.65853667259,-0.853658556938,1.0,0.0,0.0,0.0,1.0,0.0,0.0,0.0,1.0,1.74776721191,-2.91613762207,9.53371159526,1.0,0.0,0.0,0.0,1.0,0.0,0.0,0.0,1.0
1489584298595246892,318,1489584298593451165,,-7.57751083374,-21.0574569702,-49.9333572388,0.0049290000461,1.0,0.0,0.0,0.0,1.0,0.0,0.0,0.0,1.0,-0.0609756112099,3.35365867615,-0.975609779358,1.0,0.0,0.0,0.0,1.0,0.0,0.0,0.0,1.0,1.69509477539,-2.94486804199,9.39484672993,1.0,0.0,0.0,0.0,1.0,0.0,0.0,0.0,1.0
1489584298615982016,319,1489584298613761811,,-7.58633995056,-21.0067844391,-49.9743766785,0.00629300018772,1.0,0.0,0.0,0.0,1.0,0.0,0.0,0.0,1.0,-0.0609756112099,2.80487799644,-0.853658556938,1.0,0.0,0.0,0.0,1.0,0.0,0.0,0.0,1.0,1.64721074219,-2.98317526855,9.59117243511,1.0,0.0,0.0,0.0,1.0,0.0,0.0,0.0,1.0
1489584298637234588,320,1489584298635512612,,-7.59412050247,-20.9494686127,-50.0105171204,0.004803000018,1.0,0.0,0.0,0.0,1.0,0.0,0.0,0.0,1.0,0.18292683363,2.74390244484,-0.487804889679,1.0,0.0,0.0,0.0,1.0,0.0,0.0,0.0,1.0,1.62805712891,-2.92571442871,9.46667277974,1.0,0.0,0.0,0.0,1.0,0.0,0.0,0.0,1.0
1489584298659683148,321,1489584298657749609,,-7.62209796906,-20.9123401642,-50.02734375,0.00277599995025,1.0,0.0,0.0,0.0,1.0,0.0,0.0,0.0,1.0,0.426829278469,1.8902438879,-0.0609756112099,1.0,0.0,0.0,0.0,1.0,0.0,0.0,0.0,1.0,1.57059628906,-2.94486804199,9.55765361187,1.0,0.0,0.0,0.0,1.0,0.0,0.0,0.0,1.0
1489584298681388114,322,1489584298679287493,,-7.65566158295,-20.8646240234,-50.0369567871,0.00284900004044,1.0,0.0,0.0,0.0,1.0,0.0,0.0,0.0,1.0,0.12195122242,1.46341466904,0.304878056049,1.0,0.0,0.0,0.0,1.0,0.0,0.0,0.0,1.0,1.67115275879,-2.97359846191,9.72524714355,1.0,0.0,0.0,0.0,1.0,0.0,0.0,0.0,1.0
1489584298703406883,323,1489584298701562980,,-7.68564128876,-20.8085784912,-50.0405845642,0.00438100006431,1.0,0.0,0.0,0.0,1.0,0.0,0.0,0.0,1.0,0.243902444839,1.15853655338,0.487804889679,1.0,0.0,0.0,0.0,1.0,0.0,0.0,0.0,1.0,1.72382519531,-2.98796367187,9.54807680523,1.0,0.0,0.0,0.0,1.0,0.0,0.0,0.0,1.0
1489584298728342939,324,1489584298724091799,,-7.73567295074,-20.7633609772,-50.0358505249,0.00410200003535,1.0,0.0,0.0,0.0,1.0,0.0,0.0,0.0,1.0,-0.18292683363,1.03658533096,0.670731723309,1.0,0.0,0.0,0.0,1.0,0.0,0.0,0.0,1.0,1.67594116211,-2.96881005859,9.50019277202,1.0,0.0,0.0,0.0,1.0,0.0,0.0,0.0,1.0
1489584298749821552,325,1489584298747574055,,-7.79688501358,-20.7231903076,-50.0338363647,0.00407300004736,1.0,0.0,0.0,0.0,1.0,0.0,0.0,0.0,1.0,-0.18292683363,1.15853655338,0.365853667259,1.0,0.0,0.0,0.0,1.0,0.0,0.0,0.0,1.0,1.75734401855,-2.92092602539,9.58638403179,1.0,0.0,0.0,0.0,1.0,0.0,0.0,0.0,1.0
1489584298771374800,326,1489584298768291003,,-7.83974123001,-20.6958656311,-50.0445785522,0.00257500004955,1.0,0.0,0.0,0.0,1.0,0.0,0.0,0.0,1.0,-0.487804889679,2.07317066193,0.0,1.0,0.0,0.0,0.0,1.0,0.0,0.0,0.0,1.0,1.70945998535,-2.97838686523,9.64384487163,1.0,0.0,0.0,0.0,1.0,0.0,0.0,0.0,1.0
1489584298792532789,327,1489584298789192638,,-7.87576913834,-20.6699390411,-50.0704994202,0.0026469998993,1.0,0.0,0.0,0.0,1.0,0.0,0.0,0.0,1.0,-0.548780500889,2.74390244484,-0.548780500889,1.0,0.0,0.0,0.0,1.0,0.0,0.0,0.0,1.0,1.66636435547,-2.92571442871,9.58159562847,1.0,0.0,0.0,0.0,1.0,0.0,0.0,0.0,1.0
1489584298814547390,328,1489584298811745728,,-7.90384054184,-20.6412334442,-50.1065826416,0.00306600006297,1.0,0.0,0.0,0.0,1.0,0.0,0.0,0.0,1.0,-0.426829278469,3.17073178291,-0.792682945728,1.0,0.0,0.0,0.0,1.0,0.0,0.0,0.0,1.0,1.67115275879,-3.02148249512,9.5432884019,1.0,0.0,0.0,0.0,1.0,0.0,0.0,0.0,1.0
1489584298837031887,329,1489584298834218506,,-7.91482019424,-20.6102485657,-50.1478118896,0.00367900007404,1.0,0.0,0.0,0.0,1.0,0.0,0.0,0.0,1.0,-0.18292683363,3.17073178291,-0.853658556938,1.0,0.0,0.0,0.0,1.0,0.0,0.0,0.0,1.0,1.68551796875,-2.98796367187,9.4954043687,1.0,0.0,0.0,0.0,1.0,0.0,0.0,0.0,1.0
1489584298857173680,330,1489584298854429882,,-7.92855787277,-20.5835552216,-50.1793479919,0.00313200009987,1.0,0.0,0.0,0.0,1.0,0.0,0.0,0.0,1.0,0.0609756112099,2.68292689323,-0.853658556938,1.0,0.0,0.0,0.0,1.0,0.0,0.0,0.0,1.0,1.69030637207,-2.9927520752,9.5193463853,1.0,0.0,0.0,0.0,1.0,0.0,0.0,0.0,1.0
1489584298877855471,331,1489584298875239277,,-7.95078229904,-20.5584220886,-50.2040138245,0.00381199992262,1.0,0.0,0.0,0.0,1.0,0.0,0.0,0.0,1.0,0.0609756112099,2.56097555161,-0.365853667259,1.0,0.0,0.0,0.0,1.0,0.0,0.0,0.0,1.0,1.69030637207,-2.95444484863,9.59117243511,1.0,0.0,0.0,0.0,1.0,0.0,0.0,0.0,1.0
1489584298898067003,332,1489584298895822787,,-7.9647192955,-20.521402359,-50.2290344238,0.00698299985379,1.0,0.0,0.0,0.0,1.0,0.0,0.0,0.0,1.0,0.12195122242,2.5,-0.426829278469,1.0,0.0,0.0,0.0,1.0,0.0,0.0,0.0,1.0,1.72861359863,-2.94965644531,9.54807680523,1.0,0.0,0.0,0.0,1.0,0.0,0.0,0.0,1.0
1489584298920405875,333,1489584298917884785,,-8.00476360321,-20.4986190796,-50.2493934631,0.00270500010811,1.0,0.0,0.0,0.0,1.0,0.0,0.0,0.0,1.0,-0.12195122242,2.74390244484,-0.487804889679,1.0,0.0,0.0,0.0,1.0,0.0,0.0,0.0,1.0,1.78128603516,-2.92092602539,9.5193463853,1.0,0.0,0.0,0.0,1.0,0.0,0.0,0.0,1.0
1489584298942720164,334,1489584298939832876,,-8.0246181488,-20.4726276398,-50.2659034729,0.00265199993737,1.0,0.0,0.0,0.0,1.0,0.0,0.0,0.0,1.0,0.365853667259,2.25609779358,-0.0609756112099,1.0,0.0,0.0,0.0,1.0,0.0,0.0,0.0,1.0,1.65199914551,-3.03584770508,9.64863327495,1.0,0.0,0.0,0.0,1.0,0.0,0.0,0.0,1.0
1489584298964321381,335,1489584298961804301,,-8.05212593079,-20.4405479431,-50.2762031555,0.00247099995613,1.0,0.0,0.0,0.0,1.0,0.0,0.0,0.0,1.0,0.304878056049,2.25609779358,-0.0609756112099,1.0,0.0,0.0,0.0,1.0,0.0,0.0,0.0,1.0,1.74776721191,-2.97359846191,9.62469125835,1.0,0.0,0.0,0.0,1.0,0.0,0.0,0.0,1.0
1489584298988169157,336,1489584298983266144,,-8.08709716797,-20.4124526978,-50.2822914124,0.00241499999538,1.0,0.0,0.0,0.0,1.0,0.0,0.0,0.0,1.0,0.0609756112099,2.25609779358,-0.18292683363,1.0,0.0,0.0,0.0,1.0,0.0,0.0,0.0,1.0,1.72861359863,-2.90177241211,9.48103915874,1.0,0.0,0.0,0.0,1.0,0.0,0.0,0.0,1.0
1489584299011549850,337,1489584299008386157,,-8.11491966248,-20.3825798035,-50.293296814,0.00254000001587,1.0,0.0,0.0,0.0,1.0,0.0,0.0,0.0,1.0,0.365853667259,2.25609779358,-0.365853667259,1.0,0.0,0.0,0.0,1.0,0.0,0.0,0.0,1.0,1.73340200195,-3.0166940918,9.45230756977,1.0,0.0,0.0,0.0,1.0,0.0,0.0,0.0,1.0
1489584299038269080,338,1489584299035398668,,-8.14800930023,-20.3425598145,-50.3064231873,0.00956900045276,1.0,0.0,0.0,0.0,1.0,0.0,0.0,0.0,1.0,0.12195122242,2.31707310677,0.18292683363,1.0,0.0,0.0,0.0,1.0,0.0,0.0,0.0,1.0,1.69988317871,-2.87783039551,9.59117243511,1.0,0.0,0.0,0.0,1.0,0.0,0.0,0.0,1.0
1489584299058650820,339,1489584299056741969,,-8.16627693176,-20.3130836487,-50.319568634,0.00333600002341,1.0,0.0,0.0,0.0,1.0,0.0,0.0,0.0,1.0,0.0,2.5,-0.12195122242,1.0,0.0,0.0,0.0,1.0,0.0,0.0,0.0,1.0,1.7908628418,-2.97838686523,9.56244201519,1.0,0.0,0.0,0.0,1.0,0.0,0.0,0.0,1.0
1489584299082159378,340,1489584299080127142,,-8.18346595764,-20.275434494,-50.3348655701,0.00345700001344,1.0,0.0,0.0,0.0,1.0,0.0,0.0,0.0,1.0,0.365853667259,2.5,-0.0609756112099,1.0,0.0,0.0,0.0,1.0,0.0,0.0,0.0,1.0,1.63763393555,-2.91134921875,9.69172832031,1.0,0.0,0.0,0.0,1.0,0.0,0.0,0.0,1.0
1489584299103205336,341,1489584299101147787,,-8.19456291199,-20.23944664,-50.35206604,0.0030839999672,1.0,0.0,0.0,0.0,1.0,0.0,0.0,0.0,1.0,0.0609756112099,2.37804889679,-0.12195122242,1.0,0.0,0.0,0.0,1.0,0.0,0.0,0.0,1.0,1.70945998535,-2.93050283203,9.64384487163,1.0,0.0,0.0,0.0,1.0,0.0,0.0,0.0,1.0
1489584299129646910,342,1489584299123687284,,-8.21332359314,-20.2128925323,-50.3711242676,0.00248600007035,1.0,0.0,0.0,0.0,1.0,0.0,0.0,0.0,1.0,-0.426829278469,2.56097555161,-0.426829278469,1.0,0.0,0.0,0.0,1.0,0.0,0.0,0.0,1.0,1.67594116211,-2.94486804199,9.52413478862,1.0,0.0,0.0,0.0,1.0,0.0,0.0,0.0,1.0
1489584299149083182,343,1489584299144809595,,-8.23291301727,-20.183965683,-50.3935699463,0.00358400004916,1.0,0.0,0.0,0.0,1.0,0.0,0.0,0.0,1.0,0.0609756112099,2.62195134163,-0.487804889679,1.0,0.0,0.0,0.0,1.0,0.0,0.0,0.0,1.0,1.77170922852,-2.88261879883,9.61032604839,1.0,0.0,0.0,0.0,1.0,0.0,0.0,0.0,1.0
1489584299170497004,344,1489584299168713777,,-8.25862884521,-20.1532039642,-50.4204483032,0.0030539999716,1.0,0.0,0.0,0.0,1.0,0.0,0.0,0.0,1.0,0.18292683363,2.5,-0.792682945728,1.0,0.0,0.0,0.0,1.0,0.0,0.0,0.0,1.0,1.7908628418,-2.90177241211,9.58159562847,1.0,0.0,0.0,0.0,1.0,0.0,0.0,0.0,1.0
1489584299192987438,345,1489584299191108743,,-8.27213954926,-20.1270256042,-50.4535217285,0.0026750001125,1.0,0.0,0.0,0.0,1.0,0.0,0.0,0.0,1.0,0.0609756112099,3.04878044128,-0.853658556938,1.0,0.0,0.0,0.0,1.0,0.0,0.0,0.0,1.0,1.74776721191,-2.93050283203,9.50976957866,1.0,0.0,0.0,0.0,1.0,0.0,0.0,0.0,1.0
1489584299215357040,346,1489584299213542303,,-8.27028083801,-20.0939254761,-50.5024185181,0.0047140000388,1.0,0.0,0.0,0.0,1.0,0.0,0.0,0.0,1.0,-0.487804889679,3.41463422775,-0.853658556938,1.0,0.0,0.0,0.0,1.0,0.0,0.0,0.0,1.0,1.67594116211,-2.93529123535,9.50498117534,1.0,0.0,0.0,0.0,1.0,0.0,0.0,0.0,1.0
1489584299238809920,347,1489584299236413153,,-8.27118778229,-20.0650062561,-50.5472640991,0.00936200004071,1.0,0.0,0.0,0.0,1.0,0.0,0.0,0.0,1.0,-0.426829278469,2.92682933807,-0.975609779358,1.0,0.0,0.0,0.0,1.0,0.0,0.0,0.0,1.0,1.68072956543,-2.99754047852,9.67257470703,1.0,0.0,0.0,0.0,1.0,0.0,0.0,0.0,1.0
1489584299264387798,348,1489584299258973952,,-8.28825283051,-20.0520744324,-50.576839447,0.00258999993093,1.0,0.0,0.0,0.0,1.0,0.0,0.0,0.0,1.0,-0.731707334518,2.43902444839,-0.609756112099,1.0,0.0,0.0,0.0,1.0,0.0,0.0,0.0,1.0,1.68072956543,-2.95444484863,9.62469125835,1.0,0.0,0.0,0.0,1.0,0.0,0.0,0.0,1.0
1489584299280988710,349,1489584299279310119,,-8.31165122986,-20.0524349213,-50.5909614563,0.00268199993297,1.0,0.0,0.0,0.0,1.0,0.0,0.0,0.0,1.0,-0.304878056049,2.01219511032,-0.487804889679,1.0,0.0,0.0,0.0,1.0,0.0,0.0,0.0,1.0,1.67594116211,-2.94486804199,9.67257470703,1.0,0.0,0.0,0.0,1.0,0.0,0.0,0.0,1.0
1489584299303487582,350,1489584299301917741,,-8.33420562744,-20.0485057831,-50.5972366333,0.00301799993031,1.0,0.0,0.0,0.0,1.0,0.0,0.0,0.0,1.0,-0.487804889679,1.64634156227,0.0,1.0,0.0,0.0,0.0,1.0,0.0,0.0,0.0,1.0,1.66157595215,-2.97359846191,9.53849999858,1.0,0.0,0.0,0.0,1.0,0.0,0.0,0.0,1.0
1489584299332724204,351,1489584299330685249,,-8.36443996429,-20.0310001373,-50.5912704468,0.0024389999453,1.0,0.0,0.0,0.0,1.0,0.0,0.0,0.0,1.0,-0.12195122242,0.792682945728,0.670731723309,1.0,0.0,0.0,0.0,1.0,0.0,0.0,0.0,1.0,1.67115275879,-3.12682736816,9.42357714985,1.0,0.0,0.0,0.0,1.0,0.0,0.0,0.0,1.0
1489584299350631417,352,1489584299349017148,,-8.39532184601,-20.0081310272,-50.5745277405,0.00276500009932,1.0,0.0,0.0,0.0,1.0,0.0,0.0,0.0,1.0,0.18292683363,0.365853667259,1.03658533096,1.0,0.0,0.0,0.0,1.0,0.0,0.0,0.0,1.0,1.72382519531,-3.07894333496,9.60553764507,1.0,0.0,0.0,0.0,1.0,0.0,0.0,0.0,1.0
1489584299373017528,353,1489584299371366645,,-8.43772983551,-19.9863395691,-50.557598114,0.00271599995904,1.0,0.0,0.0,0.0,1.0,0.0,0.0,0.0,1.0,-0.12195122242,1.03658533096,1.15853655338,1.0,0.0,0.0,0.0,1.0,0.0,0.0,0.0,1.0,1.72861359863,-3.03105930176,9.59117243511,1.0,0.0,0.0,0.0,1.0,0.0,0.0,0.0,1.0
1489584299395013693,354,1489584299393312029,,-8.49022865295,-19.9786720276,-50.5451431274,0.00716099981219,1.0,0.0,0.0,0.0,1.0,0.0,0.0,0.0,1.0,0.0,1.70731711388,0.609756112099,1.0,0.0,0.0,0.0,1.0,0.0,0.0,0.0,1.0,1.7908628418,-2.95444484863,9.57201882183,1.0,0.0,0.0,0.0,1.0,0.0,0.0,0.0,1.0
1489584299417043659,355,1489584299415357880,,-8.51290035248,-19.9488677979,-50.5552711487,0.00265299994498,1.0,0.0,0.0,0.0,1.0,0.0,0.0,0.0,1.0,-0.304878056049,2.19512200356,-0.0609756112099,1.0,0.0,0.0,0.0,1.0,0.0,0.0,0.0,1.0,1.72861359863,-2.82515795898,9.65342167827,1.0,0.0,0.0,0.0,1.0,0.0,0.0,0.0,1.0
1489584299438478522,356,1489584299436768316,,-8.51962375641,-19.9247093201,-50.5776100159,0.00249999994412,1.0,0.0,0.0,0.0,1.0,0.0,0.0,0.0,1.0,-0.243902444839,2.98780488968,-0.243902444839,1.0,0.0,0.0,0.0,1.0,0.0,0.0,0.0,1.0,1.73340200195,-2.90656081543,9.62947966167,1.0,0.0,0.0,0.0,1.0,0.0,0.0,0.0,1.0
1489584299461379529,357,1489584299459720000,,-8.52037334442,-19.9123744965,-50.6142959595,0.00288100005127,1.0,0.0,0.0,0.0,1.0,0.0,0.0,0.0,1.0,-0.548780500889,3.29268312454,-0.670731723309,1.0,0.0,0.0,0.0,1.0,0.0,0.0,0.0,1.0,1.70945998535,-3.01190568848,9.39005832661,1.0,0.0,0.0,0.0,1.0,0.0,0.0,0.0,1.0
1489584299482151737,358,1489584299480450073,,-8.5198431015,-19.887714386,-50.6591796875,0.0034380001016,1.0,0.0,0.0,0.0,1.0,0.0,0.0,0.0,1.0,-0.731707334518,3.7804877758,-1.09756100178,1.0,0.0,0.0,0.0,1.0,0.0,0.0,0.0,1.0,1.69509477539,-2.91134921875,9.64863327495,1.0,0.0,0.0,0.0,1.0,0.0,0.0,0.0,1.0
1489584299508529457,359,1489584299503657954,,-8.50500869751,-19.8643703461,-50.7183074951,0.00412400020286,1.0,0.0,0.0,0.0,1.0,0.0,0.0,0.0,1.0,-0.304878056049,3.84146332741,-1.52439022064,1.0,0.0,0.0,0.0,1.0,0.0,0.0,0.0,1.0,1.73819040527,-2.86825358887,9.39963513325,1.0,0.0,0.0,0.0,1.0,0.0,0.0,0.0,1.0
1489584299533542804,360,1489584299524407766,,-8.48647403717,-19.8390369415,-50.769203186,0.00289099989459,1.0,0.0,0.0,0.0,1.0,0.0,0.0,0.0,1.0,-0.304878056049,3.71951246262,-1.40243899822,1.0,0.0,0.0,0.0,1.0,0.0,0.0,0.0,1.0,1.58974990234,-2.97359846191,9.54807680523,1.0,0.0,0.0,0.0,1.0,0.0,0.0,0.0,1.0
1489584299550423612,361,1489584299548230490,,-8.47272968292,-19.809589386,-50.822883606,0.00295299990103,1.0,0.0,0.0,0.0,1.0,0.0,0.0,0.0,1.0,-0.365853667259,3.17073178291,-1.15853655338,1.0,0.0,0.0,0.0,1.0,0.0,0.0,0.0,1.0,1.62326872559,-2.91613762207,9.58638403179,1.0,0.0,0.0,0.0,1.0,0.0,0.0,0.0,1.0
1489584299571491757,362,1489584299568861500,,-8.47844696045,-19.8038368225,-50.8631744385,0.00260000000708,1.0,0.0,0.0,0.0,1.0,0.0,0.0,0.0,1.0,-0.12195122242,3.10975623131,-1.2195122242,1.0,0.0,0.0,0.0,1.0,0.0,0.0,0.0,1.0,1.70945998535,-3.02148249512,9.41400034321,1.0,0.0,0.0,0.0,1.0,0.0,0.0,0.0,1.0
1489584299589809333,363,1489584299587604753,,-8.47491359711,-19.7803573608,-50.8997192383,0.00271899998188,1.0,0.0,0.0,0.0,1.0,0.0,0.0,0.0,1.0,-0.0609756112099,3.29268312454,-0.731707334518,1.0,0.0,0.0,0.0,1.0,0.0,0.0,0.0,1.0,1.70945998535,-3.0166940918,9.59117243511,1.0,0.0,0.0,0.0,1.0,0.0,0.0,0.0,1.0
1489584299610760655,364,1489584299607978993,,-8.48153305054,-19.7659111023,-50.9277420044,0.00273500010371,1.0,0.0,0.0,0.0,1.0,0.0,0.0,0.0,1.0,0.243902444839,2.86585378647,-0.792682945728,1.0,0.0,0.0,0.0,1.0,0.0,0.0,0.0,1.0,1.67115275879,-2.93529123535,9.57201882183,1.0,0.0,0.0,0.0,1.0,0.0,0.0,0.0,1.0
1489584299636552074,365,1489584299633754058,,-8.48966026306,-19.7360534668,-50.9595031738,0.0064260000363,1.0,0.0,0.0,0.0,1.0,0.0,0.0,0.0,1.0,0.304878056049,2.80487799644,-0.426829278469,1.0,0.0,0.0,0.0,1.0,0.0,0.0,0.0,1.0,1.75255561523,-2.98796367187,9.5432884019,1.0,0.0,0.0,0.0,1.0,0.0,0.0,0.0,1.0
1489584299659062040,366,1489584299656840481,,-8.49305820465,-19.7054386139,-50.9862213135,0.00314699998125,1.0,0.0,0.0,0.0,1.0,0.0,0.0,0.0,1.0,0.18292683363,3.04878044128,-0.365853667259,1.0,0.0,0.0,0.0,1.0,0.0,0.0,0.0,1.0,1.69509477539,-2.90656081543,9.61511445171,1.0,0.0,0.0,0.0,1.0,0.0,0.0,0.0,1.0
1489584299680523778,367,1489584299678500291,,-8.49904251099,-19.679851532,-51.010471344,0.00279899989255,1.0,0.0,0.0,0.0,1.0,0.0,0.0,0.0,1.0,0.12195122242,2.98780488968,-0.304878056049,1.0,0.0,0.0,0.0,1.0,0.0,0.0,0.0,1.0,1.72382519531,-2.91613762207,9.63426806499,1.0,0.0,0.0,0.0,1.0,0.0,0.0,0.0,1.0
1489584299702716192,368,1489584299700269060,,-8.49060916901,-19.6465568542,-51.0377502441,0.00301100010984,1.0,0.0,0.0,0.0,1.0,0.0,0.0,0.0,1.0,-0.12195122242,3.17073178291,-0.18292683363,1.0,0.0,0.0,0.0,1.0,0.0,0.0,0.0,1.0,1.68072956543,-2.81558115234,9.63905646831,1.0,0.0,0.0,0.0,1.0,0.0,0.0,0.0,1.0
1489584299730355108,369,1489584299722560328,,-8.48169517517,-19.6229667664,-51.0664329529,0.00288100005127,1.0,0.0,0.0,0.0,1.0,0.0,0.0,0.0,1.0,0.0609756112099,3.10975623131,-0.487804889679,1.0,0.0,0.0,0.0,1.0,0.0,0.0,0.0,1.0,1.67115275879,-2.92092602539,9.55765361187,1.0,0.0,0.0,0.0,1.0,0.0,0.0,0.0,1.0
1489584299747275864,370,1489584299744588576,,-8.47686100006,-19.6123466492,-51.0926399231,0.00270600011572,1.0,0.0,0.0,0.0,1.0,0.0,0.0,0.0,1.0,-0.304878056049,3.47560977936,-0.365853667259,1.0,0.0,0.0,0.0,1.0,0.0,0.0,0.0,1.0,1.63284553223,-2.92092602539,9.73961235352,1.0,0.0,0.0,0.0,1.0,0.0,0.0,0.0,1.0
1489584299768986716,371,1489584299765663179,,-8.46746349335,-19.5967502594,-51.1281852722,0.00259299995378,1.0,0.0,0.0,0.0,1.0,0.0,0.0,0.0,1.0,-0.731707334518,4.02439022064,-0.853658556938,1.0,0.0,0.0,0.0,1.0,0.0,0.0,0.0,1.0,1.78607443848,-2.93050283203,9.61032604839,1.0,0.0,0.0,0.0,1.0,0.0,0.0,0.0,1.0
1489584299790244808,372,1489584299788189812,,-8.44733810425,-19.574136734,-51.1823425293,0.00275900005363,1.0,0.0,0.0,0.0,1.0,0.0,0.0,0.0,1.0,-0.670731723309,4.81707286835,-1.09756100178,1.0,0.0,0.0,0.0,1.0,0.0,0.0,0.0,1.0,1.72861359863,-2.8299463623,9.56244201519,1.0,0.0,0.0,0.0,1.0,0.0,0.0,0.0,1.0
1489584299812119306,373,1489584299809109103,,-8.41539573669,-19.5410175323,-51.2520370483,0.00271499995142,1.0,0.0,0.0,0.0,1.0,0.0,0.0,0.0,1.0,-0.487804889679,6.58536624908,-1.70731711388,1.0,0.0,0.0,0.0,1.0,0.0,0.0,0.0,1.0,1.96803376465,-2.83473476562,9.61032604839,1.0,0.0,0.0,0.0,1.0,0.0,0.0,0.0,1.0
1489584299834554949,374,1489584299832238390,,-8.35450935364,-19.5030918121,-51.3589744568,0.00406999979168,1.0,0.0,0.0,0.0,1.0,0.0,0.0,0.0,1.0,-0.670731723309,8.41463470459,-2.86585378647,1.0,0.0,0.0,0.0,1.0,0.0,0.0,0.0,1.0,1.9105729248,-2.81079274902,9.63905646831,1.0,0.0,0.0,0.0,1.0,0.0,0.0,0.0,1.0
1489584299858759704,375,1489584299856289187,,-8.24829769135,-19.4690570831,-51.5221328735,0.00574500020593,1.0,0.0,0.0,0.0,1.0,0.0,0.0,0.0,1.0,1.2804877758,11.0975618362,-3.90243911743,1.0,0.0,0.0,0.0,1.0,0.0,0.0,0.0,1.0,1.77170922852,-2.87783039551,9.73961235352,1.0,0.0,0.0,0.0,1.0,0.0,0.0,0.0,1.0
1489584299881482430,376,1489584299879142537,,-8.08920669556,-19.4404029846,-51.7018585205,0.00286999996752,1.0,0.0,0.0,0.0,1.0,0.0,0.0,0.0,1.0,0.670731723309,12.2560977936,-4.93902444839,1.0,0.0,0.0,0.0,1.0,0.0,0.0,0.0,1.0,1.51792385254,-3.10288535156,9.60553764507,1.0,0.0,0.0,0.0,1.0,0.0,0.0,0.0,1.0
1489584299902299846,377,1489584299900187609,,-7.92291259766,-19.4288368225,-51.874710083,0.00296600000001,1.0,0.0,0.0,0.0,1.0,0.0,0.0,0.0,1.0,0.670731723309,11.7073173523,-4.51219558716,1.0,0.0,0.0,0.0,1.0,0.0,0.0,0.0,1.0,1.41736738281,-3.12203896484,9.52892319194,1.0,0.0,0.0,0.0,1.0,0.0,0.0,0.0,1.0
1489584299922502003,378,1489584299920587370,,-7.78436660767,-19.4454307556,-52.0142478943,0.00287900003605,1.0,0.0,0.0,0.0,1.0,0.0,0.0,0.0,1.0,-0.0609756112099,10.2439022064,-3.47560977936,1.0,0.0,0.0,0.0,1.0,0.0,0.0,0.0,1.0,1.31202250977,-3.02627089844,9.60553764507,1.0,0.0,0.0,0.0,1.0,0.0,0.0,0.0,1.0
1489584299944097595,379,1489584299942322597,,-7.66689014435,-19.4584751129,-52.1248397827,0.00262799998745,1.0,0.0,0.0,0.0,1.0,0.0,0.0,0.0,1.0,-0.12195122242,7.31707334518,-2.43902444839,1.0,0.0,0.0,0.0,1.0,0.0,0.0,0.0,1.0,1.19231249982,-2.95444484863,9.56723041851,1.0,0.0,0.0,0.0,1.0,0.0,0.0,0.0,1.0
1489584299966803497,380,1489584299964642563,,-7.60141086578,-19.4734249115,-52.1855888367,0.00241199997254,1.0,0.0,0.0,0.0,1.0,0.0,0.0,0.0,1.0,-0.12195122242,3.90243911743,-1.09756100178,1.0,0.0,0.0,0.0,1.0,0.0,0.0,0.0,1.0,1.23061965332,-2.85867678223,9.54807680523,1.0,0.0,0.0,0.0,1.0,0.0,0.0,0.0,1.0
1489584299991533720,381,1489584299987575862,,-7.58677339554,-19.492313385,-52.1824569702,0.00239700009115,1.0,0.0,0.0,0.0,1.0,0.0,0.0,0.0,1.0,0.609756112099,0.0609756112099,0.914634168148,1.0,0.0,0.0,0.0,1.0,0.0,0.0,0.0,1.0,1.0534486574,-3.0166940918,9.53371159526,1.0,0.0,0.0,0.0,1.0,0.0,0.0,0.0,1.0
1489584300011870877,382,1489584300009866921,,-7.63962507248,-19.5184326172,-52.1099624634,0.00258200010285,1.0,0.0,0.0,0.0,1.0,0.0,0.0,0.0,1.0,0.304878056049,-3.10975623131,2.92682933807,1.0,0.0,0.0,0.0,1.0,0.0,0.0,0.0,1.0,1.22104284668,-2.94486804199,9.62947966167,1.0,0.0,0.0,0.0,1.0,0.0,0.0,0.0,1.0
1489584300036524381,383,1489584300030950795,,-7.74200344086,-19.555809021,-51.9910354614,0.00291500007734,1.0,0.0,0.0,0.0,1.0,0.0,0.0,0.0,1.0,0.0,-4.45121955872,4.2682929039,1.0,0.0,0.0,0.0,1.0,0.0,0.0,0.0,1.0,1.36948334961,-2.93529123535,9.56723041851,1.0,0.0,0.0,0.0,1.0,0.0,0.0,0.0,1.0
1489584300057372422,384,1489584300051977795,,-7.87094926834,-19.583770752,-51.8623123169,0.00317399995402,1.0,0.0,0.0,0.0,1.0,0.0,0.0,0.0,1.0,0.18292683363,-4.69512224197,4.20731735229,1.0,0.0,0.0,0.0,1.0,0.0,0.0,0.0,1.0,1.59453830566,-2.97359846191,9.50976957866,1.0,0.0,0.0,0.0,1.0,0.0,0.0,0.0,1.0
1489584300075983435,385,1489584300073323700,,-8.02348232269,-19.6129360199,-51.7335472107,0.00286699994467,1.0,0.0,0.0,0.0,1.0,0.0,0.0,0.0,1.0,0.487804889679,-4.32926845551,3.7804877758,1.0,0.0,0.0,0.0,1.0,0.0,0.0,0.0,1.0,1.71903679199,-2.92092602539,9.46667277974,1.0,0.0,0.0,0.0,1.0,0.0,0.0,0.0,1.0
1489584300097266267,386,1489584300094307001,,-8.16081523895,-19.6274108887,-51.6327476501,0.00297600007616,1.0,0.0,0.0,0.0,1.0,0.0,0.0,0.0,1.0,0.243902444839,-2.56097555161,2.86585378647,1.0,0.0,0.0,0.0,1.0,0.0,0.0,0.0,1.0,1.87226569824,-2.88261879883,9.70609353027,1.0,0.0,0.0,0.0,1.0,0.0,0.0,0.0,1.0
1489584300117434518,387,1489584300114786188,,-8.2549943924,-19.6114234924,-51.5802192688,0.00306200003251,1.0,0.0,0.0,0.0,1.0,0.0,0.0,0.0,1.0,-0.18292683363,0.0,1.52439022064,1.0,0.0,0.0,0.0,1.0,0.0,0.0,0.0,1.0,1.97761057129,-2.81079274902,9.66778688823,1.0,0.0,0.0,0.0,1.0,0.0,0.0,0.0,1.0
1489584300139041881,388,1489584300136566728,,-8.31554889679,-19.6127300262,-51.5740623474,0.00293299998157,1.0,0.0,0.0,0.0,1.0,0.0,0.0,0.0,1.0,-0.609756112099,2.98780488968,-0.609756112099,1.0,0.0,0.0,0.0,1.0,0.0,0.0,0.0,1.0,1.94409174805,-2.91134921875,9.73003554687,1.0,0.0,0.0,0.0,1.0,0.0,0.0,0.0,1.0
1489584300159364089,389,1489584300157337582,,-8.32771205902,-19.6151943207,-51.6229858398,0.0029490001034,1.0,0.0,0.0,0.0,1.0,0.0,0.0,0.0,1.0,-0.792682945728,5.12195110321,-2.01219511032,1.0,0.0,0.0,0.0,1.0,0.0,0.0,0.0,1.0,1.82917006836,-2.84431157227,9.53849999858,1.0,0.0,0.0,0.0,1.0,0.0,0.0,0.0,1.0
1489584300183263480,390,1489584300180380620,,-8.2835817337,-19.6103630066,-51.7194519043,0.00269900006242,1.0,0.0,0.0,0.0,1.0,0.0,0.0,0.0,1.0,-0.914634168148,7.50000047684,-2.86585378647,1.0,0.0,0.0,0.0,1.0,0.0,0.0,0.0,1.0,1.64721074219,-2.8299463623,9.60074924175,1.0,0.0,0.0,0.0,1.0,0.0,0.0,0.0,1.0
1489584300203150533,391,1489584300200879078,,-8.20706367493,-19.6002655029,-51.8315811157,0.00254400004633,1.0,0.0,0.0,0.0,1.0,0.0,0.0,0.0,1.0,-0.609756112099,7.92682981491,-3.41463422775,1.0,0.0,0.0,0.0,1.0,0.0,0.0,0.0,1.0,1.4604630127,-2.94007963867,9.57201882183,1.0,0.0,0.0,0.0,1.0,0.0,0.0,0.0,1.0
1489584300227735495,392,1489584300223844147,,-8.12447547913,-19.6111927032,-51.9468421936,0.00241499999538,1.0,0.0,0.0,0.0,1.0,0.0,0.0,0.0,1.0,-0.670731723309,7.19512224197,-3.35365867615,1.0,0.0,0.0,0.0,1.0,0.0,0.0,0.0,1.0,1.44130939941,-2.9927520752,9.61032604839,1.0,0.0,0.0,0.0,1.0,0.0,0.0,0.0,1.0
1489584300247071872,393,1489584300243967346,,-8.05448627472,-19.6242523193,-52.0392036438,0.00247700000182,1.0,0.0,0.0,0.0,1.0,0.0,0.0,0.0,1.0,-0.304878056049,6.0365858078,-2.68292689323,1.0,0.0,0.0,0.0,1.0,0.0,0.0,0.0,1.0,1.31681091309,-2.92092602539,9.60553764507,1.0,0.0,0.0,0.0,1.0,0.0,0.0,0.0,1.0
1489584300269103088,394,1489584300266492311,,-8.00322055817,-19.6473255157,-52.1123275757,0.00241900002584,1.0,0.0,0.0,0.0,1.0,0.0,0.0,0.0,1.0,-0.12195122242,4.45121955872,-1.76829278469,1.0,0.0,0.0,0.0,1.0,0.0,0.0,0.0,1.0,1.22104284668,-3.03584770508,9.52413478862,1.0,0.0,0.0,0.0,1.0,0.0,0.0,0.0,1.0
1489584300292300241,395,1489584300289272224,,-7.99095726013,-19.6600437164,-52.1487503052,0.00264499988407,1.0,0.0,0.0,0.0,1.0,0.0,0.0,0.0,1.0,0.0,1.76829278469,-0.914634168148,1.0,0.0,0.0,0.0,1.0,0.0,0.0,0.0,1.0,1.28808049316,-3.0166940918,9.46188437642,1.0,0.0,0.0,0.0,1.0,0.0,0.0,0.0,1.0
