%time,field.header.seq,field.header.stamp,field.header.frame_id,field.orientation.x,field.orientation.y,field.orientation.z,field.orientation.w,field.orientation_covariance0,field.orientation_covariance1,field.orientation_covariance2,field.orientation_covariance3,field.orientation_covariance4,field.orientation_covariance5,field.orientation_covariance6,field.orientation_covariance7,field.orientation_covariance8,field.angular_velocity.x,field.angular_velocity.y,field.angular_velocity.z,field.angular_velocity_covariance0,field.angular_velocity_covariance1,field.angular_velocity_covariance2,field.angular_velocity_covariance3,field.angular_velocity_covariance4,field.angular_velocity_covariance5,field.angular_velocity_covariance6,field.angular_velocity_covariance7,field.angular_velocity_covariance8,field.linear_acceleration.x,field.linear_acceleration.y,field.linear_acceleration.z,field.linear_acceleration_covariance0,field.linear_acceleration_covariance1,field.linear_acceleration_covariance2,field.linear_acceleration_covariance3,field.linear_acceleration_covariance4,field.linear_acceleration_covariance5,field.linear_acceleration_covariance6,field.linear_acceleration_covariance7,field.linear_acceleration_covariance8
1489584084265720961,0,1489584084263176485,,0.220247477293,-63.8415985107,179.677536011,3526.66040039,1.0,0.0,0.0,0.0,1.0,0.0,0.0,0.0,1.0,0.670731723309,0.609756112099,-0.243902444839,1.0,0.0,0.0,0.0,1.0,0.0,0.0,0.0,1.0,2.14520483363,-1.11569797363,9.88805285645,1.0,0.0,0.0,0.0,1.0,0.0,0.0,0.0,1.0
1489584084288748582,1,1489584084286340565,,-0.611976444721,-62.7240982056,179.200393677,0.00277399993502,1.0,0.0,0.0,0.0,1.0,0.0,0.0,0.0,1.0,0.670731723309,1.15853655338,0.975609779358,1.0,0.0,0.0,0.0,1.0,0.0,0.0,0.0,1.0,2.10210891149,-1.04866025408,9.97424411621,1.0,0.0,0.0,0.0,1.0,0.0,0.0,0.0,1.0
1489584084309890633,2,1489584084307578865,,-1.38166987896,-61.8145904541,178.679260254,0.00312500004657,1.0,0.0,0.0,0.0,1.0,0.0,0.0,0.0,1.0,0.243902444839,1.46341466904,1.2804877758,1.0,0.0,0.0,0.0,1.0,0.0,0.0,0.0,1.0,2.14520483363,-1.14442839355,10.0029745361,1.0,0.0,0.0,0.0,1.0,0.0,0.0,0.0,1.0
1489584084332904869,3,1489584084330794143,,-2.21175074577,-60.8752937317,178.09022522,0.00594099983573,1.0,0.0,0.0,0.0,1.0,0.0,0.0,0.0,1.0,0.0,2.62195134163,0.853658556938,1.0,0.0,0.0,0.0,1.0,0.0,0.0,0.0,1.0,2.03985981445,-1.21625444336,9.83538041992,1.0,0.0,0.0,0.0,1.0,0.0,0.0,0.0,1.0
1489584084354590669,4,1489584084352638953,,-2.97717046738,-59.9978523254,177.497161865,0.00329399993643,1.0,0.0,0.0,0.0,1.0,0.0,0.0,0.0,1.0,0.304878056049,3.41463422775,1.03658533096,1.0,0.0,0.0,0.0,1.0,0.0,0.0,0.0,1.0,2.02549460449,-1.1875240965,9.94551369629,1.0,0.0,0.0,0.0,1.0,0.0,0.0,0.0,1.0
1489584084375830324,5,1489584084373789702,,-3.74234390259,-59.1247634888,176.873443604,0.00259899999946,1.0,0.0,0.0,0.0,1.0,0.0,0.0,0.0,1.0,1.2804877758,2.98780488968,1.15853655338,1.0,0.0,0.0,0.0,1.0,0.0,0.0,0.0,1.0,2.08774370153,-1.15879360352,9.91199487305,1.0,0.0,0.0,0.0,1.0,0.0,0.0,0.0,1.0
1489584084398581747,6,1489584084396262689,,-4.51238679886,-58.2250175476,176.20602417,0.0024759999942,1.0,0.0,0.0,0.0,1.0,0.0,0.0,0.0,1.0,1.2804877758,3.17073178291,0.792682945728,1.0,0.0,0.0,0.0,1.0,0.0,0.0,0.0,1.0,1.87226569824,-1.02950671387,10.0556469727,1.0,0.0,0.0,0.0,1.0,0.0,0.0,0.0,1.0
1489584084421244838,7,1489584084418126978,,-5.28736305237,-57.3455619812,175.486175537,0.00240999995731,1.0,0.0,0.0,0.0,1.0,0.0,0.0,0.0,1.0,1.15853655338,4.45121955872,-0.792682945728,1.0,0.0,0.0,0.0,1.0,0.0,0.0,0.0,1.0,2.01112939453,-1.24019645996,9.89762966309,1.0,0.0,0.0,0.0,1.0,0.0,0.0,0.0,1.0
1489584084445764592,8,1489584084440359184,,-6.04688596725,-56.4730148315,174.694442749,0.00256299995817,1.0,0.0,0.0,0.0,1.0,0.0,0.0,0.0,1.0,1.2804877758,5.12195110321,-2.68292689323,1.0,0.0,0.0,0.0,1.0,0.0,0.0,0.0,1.0,1.92014973145,-1.21625444336,9.81143840332,1.0,0.0,0.0,0.0,1.0,0.0,0.0,0.0,1.0
1489584084466090967,9,1489584084463168889,,-6.87050628662,-55.6112518311,173.830505371,0.00248700007796,1.0,0.0,0.0,0.0,1.0,0.0,0.0,0.0,1.0,1.15853655338,4.57317066193,-3.41463422775,1.0,0.0,0.0,0.0,1.0,0.0,0.0,0.0,1.0,1.97761057129,-1.10133276367,9.98382092285,1.0,0.0,0.0,0.0,1.0,0.0,0.0,0.0,1.0
1489584084485819375,10,1489584084483840836,,-7.6421790123,-54.8067398071,173.054824829,0.00257800007239,1.0,0.0,0.0,0.0,1.0,0.0,0.0,0.0,1.0,1.2804877758,4.20731735229,-3.90243911743,1.0,0.0,0.0,0.0,1.0,0.0,0.0,0.0,1.0,1.72382519531,-1.10133276367,10.0795889893,1.0,0.0,0.0,0.0,1.0,0.0,0.0,0.0,1.0
1489584084509444651,11,1489584084507196321,,-8.52602863312,-53.9257698059,172.195419312,0.00295899994671,1.0,0.0,0.0,0.0,1.0,0.0,0.0,0.0,1.0,-0.0609756112099,3.23170733452,-3.7804877758,1.0,0.0,0.0,0.0,1.0,0.0,0.0,0.0,1.0,1.68551796875,-1.1540052002,9.87368764648,1.0,0.0,0.0,0.0,1.0,0.0,0.0,0.0,1.0
1489584084534393155,12,1489584084532456700,,-9.49827957153,-52.9538726807,171.180908203,0.0056259999983,1.0,0.0,0.0,0.0,1.0,0.0,0.0,0.0,1.0,-0.731707334518,5.79268312454,-2.19512200356,1.0,0.0,0.0,0.0,1.0,0.0,0.0,0.0,1.0,1.56580788574,-1.10612116699,9.63905646831,1.0,0.0,0.0,0.0,1.0,0.0,0.0,0.0,1.0
1489584084557170620,13,1489584084554956092,,-10.2982597351,-52.1055107117,170.273040771,0.00242800009437,1.0,0.0,0.0,0.0,1.0,0.0,0.0,0.0,1.0,1.15853655338,3.47560977936,-0.426829278469,1.0,0.0,0.0,0.0,1.0,0.0,0.0,0.0,1.0,1.94888015137,-0.976834277344,9.88805285645,1.0,0.0,0.0,0.0,1.0,0.0,0.0,0.0,1.0
1489584084577647620,14,1489584084575416999,,-11.066236496,-51.3598899841,169.504608154,0.00251500005834,1.0,0.0,0.0,0.0,1.0,0.0,0.0,0.0,1.0,0.304878056049,0.0,-0.426829278469,1.0,0.0,0.0,0.0,1.0,0.0,0.0,0.0,1.0,2.13562802699,-0.943315454102,10.0939541992,1.0,0.0,0.0,0.0,1.0,0.0,0.0,0.0,1.0
1489584084597818058,15,1489584084596010248,,-11.7983970642,-50.633972168,168.754104614,0.00242000003345,1.0,0.0,0.0,0.0,1.0,0.0,0.0,0.0,1.0,-0.609756112099,0.12195122242,1.8292683363,1.0,0.0,0.0,0.0,1.0,0.0,0.0,0.0,1.0,2.24576115723,-1.24498486328,9.95987890625,1.0,0.0,0.0,0.0,1.0,0.0,0.0,0.0,1.0
1489584084620184795,16,1489584084618008809,,-12.555519104,-49.8639259338,167.923843384,0.00240999995731,1.0,0.0,0.0,0.0,1.0,0.0,0.0,0.0,1.0,-0.487804889679,-0.0609756112099,2.07317066193,1.0,0.0,0.0,0.0,1.0,0.0,0.0,0.0,1.0,1.97761057129,-1.29286889648,9.91678327637,1.0,0.0,0.0,0.0,1.0,0.0,0.0,0.0,1.0
1489584084642135907,17,1489584084639720963,,-13.3261852264,-49.1246833801,167.090194702,0.0028760000132,1.0,0.0,0.0,0.0,1.0,0.0,0.0,0.0,1.0,0.243902444839,0.609756112099,2.25609779358,1.0,0.0,0.0,0.0,1.0,0.0,0.0,0.0,1.0,2.00155258789,-1.31202250977,9.7827079834,1.0,0.0,0.0,0.0,1.0,0.0,0.0,0.0,1.0
1489584084664694519,18,1489584084661769211,,-14.0148077011,-48.3676261902,166.183395386,0.00243399990723,1.0,0.0,0.0,0.0,1.0,0.0,0.0,0.0,1.0,-0.18292683363,-0.243902444839,1.40243899822,1.0,0.0,0.0,0.0,1.0,0.0,0.0,0.0,1.0,2.17872351074,-0.991199487305,10.0748005859,1.0,0.0,0.0,0.0,1.0,0.0,0.0,0.0,1.0
1489584084686213444,19,1489584084684069697,,-14.7580947876,-47.5956840515,165.25567627,0.002623999957,1.0,0.0,0.0,0.0,1.0,0.0,0.0,0.0,1.0,0.18292683363,1.2804877758,1.03658533096,1.0,0.0,0.0,0.0,1.0,0.0,0.0,0.0,1.0,2.08774370153,-1.10612116699,9.95987890625,1.0,0.0,0.0,0.0,1.0,0.0,0.0,0.0,1.0
1489584084714093558,20,1489584084706788725,,-15.4708490372,-46.8408584595,164.297485352,0.0028230000753,1.0,0.0,0.0,0.0,1.0,0.0,0.0,0.0,1.0,0.731707334518,1.58536589146,0.670731723309,1.0,0.0,0.0,0.0,1.0,0.0,0.0,0.0,1.0,2.00155258789,-1.10612116699,9.94072529297,1.0,0.0,0.0,0.0,1.0,0.0,0.0,0.0,1.0
1489584084733301185,21,1489584084729539368,,-16.1774864197,-46.0754699707,163.241226196,0.00434100022539,1.0,0.0,0.0,0.0,1.0,0.0,0.0,0.0,1.0,-0.426829278469,2.86585378647,0.609756112099,1.0,0.0,0.0,0.0,1.0,0.0,0.0,0.0,1.0,1.87705410156,-1.10612116699,10.0125513428,1.0,0.0,0.0,0.0,1.0,0.0,0.0,0.0,1.0
1489584084751931000,22,1489584084749302983,,-16.794046402,-45.3891143799,162.266159058,0.00268999999389,1.0,0.0,0.0,0.0,1.0,0.0,0.0,0.0,1.0,-0.670731723309,2.98780488968,0.0,1.0,0.0,0.0,0.0,1.0,0.0,0.0,0.0,1.0,1.97282216797,-1.09175595703,9.95509050293,1.0,0.0,0.0,0.0,1.0,0.0,0.0,0.0,1.0
1489584084773705394,23,1489584084771397845,,-17.4389324188,-44.6508102417,161.183914185,0.00258200010285,1.0,0.0,0.0,0.0,1.0,0.0,0.0,0.0,1.0,-0.853658556938,2.56097555161,-0.975609779358,1.0,0.0,0.0,0.0,1.0,0.0,0.0,0.0,1.0,1.85790048828,-0.905008227539,9.98382092285,1.0,0.0,0.0,0.0,1.0,0.0,0.0,0.0,1.0
1489584084796279214,24,1489584084793421562,,-18.0824756622,-43.934009552,160.038101196,0.00242800009437,1.0,0.0,0.0,0.0,1.0,0.0,0.0,0.0,1.0,-0.670731723309,4.08536577225,-0.731707334518,1.0,0.0,0.0,0.0,1.0,0.0,0.0,0.0,1.0,1.92972653809,-1.08217922346,9.77791958008,1.0,0.0,0.0,0.0,1.0,0.0,0.0,0.0,1.0
1489584084818071733,25,1489584084815367518,,-18.6809711456,-43.2004699707,158.90272522,0.00240499991924,1.0,0.0,0.0,0.0,1.0,0.0,0.0,0.0,1.0,-0.304878056049,5.36585378647,-0.609756112099,1.0,0.0,0.0,0.0,1.0,0.0,0.0,0.0,1.0,2.07816689489,-1.16358193377,9.85932243652,1.0,0.0,0.0,0.0,1.0,0.0,0.0,0.0,1.0
1489584084838048160,26,1489584084836278007,,-19.2536430359,-42.4886817932,157.803451538,0.00348700000905,1.0,0.0,0.0,0.0,1.0,0.0,0.0,0.0,1.0,-0.304878056049,2.98780488968,-1.52439022064,1.0,0.0,0.0,0.0,1.0,0.0,0.0,0.0,1.0,1.92493813477,-1.22104284668,9.95987890625,1.0,0.0,0.0,0.0,1.0,0.0,0.0,0.0,1.0
1489584084861120417,27,1489584084857427298,,-19.8841247559,-41.7711257935,156.684753418,0.00254300003871,1.0,0.0,0.0,0.0,1.0,0.0,0.0,0.0,1.0,-0.548780500889,3.10975623131,-1.46341466904,1.0,0.0,0.0,0.0,1.0,0.0,0.0,0.0,1.0,2.00155258789,-0.967257470703,9.90720646973,1.0,0.0,0.0,0.0,1.0,0.0,0.0,0.0,1.0
1489584084881981843,28,1489584084879481014,,-20.5355739594,-41.0451202393,155.477676392,0.0025420000311,1.0,0.0,0.0,0.0,1.0,0.0,0.0,0.0,1.0,-0.426829278469,4.32926845551,-2.37804889679,1.0,0.0,0.0,0.0,1.0,0.0,0.0,0.0,1.0,2.07816689489,-1.20667770978,10.1131078125,1.0,0.0,0.0,0.0,1.0,0.0,0.0,0.0,1.0
1489584084904530767,29,1489584084901550616,,-21.1853542328,-40.2993469238,154.268630981,0.00255200010724,1.0,0.0,0.0,0.0,1.0,0.0,0.0,0.0,1.0,0.243902444839,4.93902444839,-2.62195134163,1.0,0.0,0.0,0.0,1.0,0.0,0.0,0.0,1.0,2.19787712402,-1.1540052002,9.97903251953,1.0,0.0,0.0,0.0,1.0,0.0,0.0,0.0,1.0
1489584084931384945,30,1489584084926646619,,-21.7685203552,-39.5783424377,153.090179443,0.00242800009437,1.0,0.0,0.0,0.0,1.0,0.0,0.0,0.0,1.0,0.792682945728,4.63414621353,-2.98780488968,1.0,0.0,0.0,0.0,1.0,0.0,0.0,0.0,1.0,1.93451494141,-1.07260241682,9.94072529297,1.0,0.0,0.0,0.0,1.0,0.0,0.0,0.0,1.0
1489584084948321378,31,1489584084946361954,,-22.4856109619,-38.7240562439,151.745880127,0.00470100017264,1.0,0.0,0.0,0.0,1.0,0.0,0.0,0.0,1.0,0.548780500889,4.51219558716,-2.43902444839,1.0,0.0,0.0,0.0,1.0,0.0,0.0,0.0,1.0,1.95845695801,-1.09175595703,9.95987890625,1.0,0.0,0.0,0.0,1.0,0.0,0.0,0.0,1.0
1489584084970741656,32,1489584084968716867,,-23.0376720428,-37.9524879456,150.428070068,0.00335599994287,1.0,0.0,0.0,0.0,1.0,0.0,0.0,0.0,1.0,0.18292683363,3.96341490746,-1.03658533096,1.0,0.0,0.0,0.0,1.0,0.0,0.0,0.0,1.0,1.87226569824,-1.03429511719,9.89284125977,1.0,0.0,0.0,0.0,1.0,0.0,0.0,0.0,1.0
1489584084991528968,33,1489584084989544909,,-23.5306510925,-37.2732963562,149.198745728,0.00259899999946,1.0,0.0,0.0,0.0,1.0,0.0,0.0,0.0,1.0,-0.0609756112099,3.29268312454,-1.52439022064,1.0,0.0,0.0,0.0,1.0,0.0,0.0,0.0,1.0,1.82917006836,-0.976834277344,9.88326445312,1.0,0.0,0.0,0.0,1.0,0.0,0.0,0.0,1.0
1489584085012553467,34,1489584085010505033,,-24.0159473419,-36.5858078003,147.981674194,0.00262499996461,1.0,0.0,0.0,0.0,1.0,0.0,0.0,0.0,1.0,0.18292683363,3.71951246262,-0.670731723309,1.0,0.0,0.0,0.0,1.0,0.0,0.0,0.0,1.0,1.75255561523,-1.08217922346,9.91678327637,1.0,0.0,0.0,0.0,1.0,0.0,0.0,0.0,1.0
1489584085033880778,35,1489584085031887240,,-24.5056610107,-35.8877944946,146.774810791,0.00574300019071,1.0,0.0,0.0,0.0,1.0,0.0,0.0,0.0,1.0,-0.12195122242,1.8902438879,-0.12195122242,1.0,0.0,0.0,0.0,1.0,0.0,0.0,0.0,1.0,1.59932670898,-0.885854614258,10.0556469727,1.0,0.0,0.0,0.0,1.0,0.0,0.0,0.0,1.0
1489584085055659391,36,1489584085053361634,,-25.0141468048,-35.1943740845,145.558609009,0.00244099996053,1.0,0.0,0.0,0.0,1.0,0.0,0.0,0.0,1.0,-0.18292683363,-0.18292683363,0.365853667259,1.0,0.0,0.0,0.0,1.0,0.0,0.0,0.0,1.0,1.80043964844,-1.00556469727,9.96945571289,1.0,0.0,0.0,0.0,1.0,0.0,0.0,0.0,1.0
1489584085076601703,37,1489584085074568268,,-25.4821510315,-34.5452690125,144.353408813,0.00254500005394,1.0,0.0,0.0,0.0,1.0,0.0,0.0,0.0,1.0,-0.0609756112099,0.792682945728,0.426829278469,1.0,0.0,0.0,0.0,1.0,0.0,0.0,0.0,1.0,1.99197578125,-1.00556469727,10.0652237793,1.0,0.0,0.0,0.0,1.0,0.0,0.0,0.0,1.0
1489584085098576982,38,1489584085096690318,,-25.9485836029,-33.88022995,143.102630615,0.00262599997222,1.0,0.0,0.0,0.0,1.0,0.0,0.0,0.0,1.0,-0.0609756112099,1.2195122242,0.12195122242,1.0,0.0,0.0,0.0,1.0,0.0,0.0,0.0,1.0,2.06859023437,-1.14442839355,9.97903251953,1.0,0.0,0.0,0.0,1.0,0.0,0.0,0.0,1.0
1489584085120784500,39,1489584085118732784,,-26.4630622864,-33.1960983276,141.833007812,0.00260500004515,1.0,0.0,0.0,0.0,1.0,0.0,0.0,0.0,1.0,-0.304878056049,1.34146344662,-0.365853667259,1.0,0.0,0.0,0.0,1.0,0.0,0.0,0.0,1.0,1.90099611816,-1.22104284668,10.0029745361,1.0,0.0,0.0,0.0,1.0,0.0,0.0,0.0,1.0
1489584085147951907,40,1489584085145651702,,-26.9511795044,-32.4995384216,140.51473999,0.00244399998337,1.0,0.0,0.0,0.0,1.0,0.0,0.0,0.0,1.0,-0.12195122242,1.34146344662,0.365853667259,1.0,0.0,0.0,0.0,1.0,0.0,0.0,0.0,1.0,1.94888015137,-1.13963999023,9.88326445312,1.0,0.0,0.0,0.0,1.0,0.0,0.0,0.0,1.0
1489584085167006565,41,1489584085164961985,,-27.4161090851,-31.8592453003,139.332015991,0.00249000010081,1.0,0.0,0.0,0.0,1.0,0.0,0.0,0.0,1.0,-0.0609756112099,0.975609779358,0.670731723309,1.0,0.0,0.0,0.0,1.0,0.0,0.0,0.0,1.0,2.06380183105,-1.1540052002,9.94551369629,1.0,0.0,0.0,0.0,1.0,0.0,0.0,0.0,1.0
1489584085189610333,42,1489584085187484815,,-27.9254207611,-31.1112689972,137.909301758,0.00524900015444,1.0,0.0,0.0,0.0,1.0,0.0,0.0,0.0,1.0,0.0,1.09756100178,1.52439022064,1.0,0.0,0.0,0.0,1.0,0.0,0.0,0.0,1.0,2.02070620117,-0.967257470703,9.98382092285,1.0,0.0,0.0,0.0,1.0,0.0,0.0,0.0,1.0
1489584085212425506,43,1489584085210378582,,-28.3527889252,-30.3983974457,136.550643921,0.00337700010277,1.0,0.0,0.0,0.0,1.0,0.0,0.0,0.0,1.0,0.426829278469,0.914634168148,2.13414645195,1.0,0.0,0.0,0.0,1.0,0.0,0.0,0.0,1.0,1.95845695801,-1.01992990723,10.060435376,1.0,0.0,0.0,0.0,1.0,0.0,0.0,0.0,1.0
1489584085236139845,44,1489584085233575526,,-28.7705726624,-29.7111644745,135.229095459,0.00682100001723,1.0,0.0,0.0,0.0,1.0,0.0,0.0,0.0,1.0,0.304878056049,0.0609756112099,1.95121955872,1.0,0.0,0.0,0.0,1.0,0.0,0.0,0.0,1.0,2.03028300781,-0.928950244141,9.97903251953,1.0,0.0,0.0,0.0,1.0,0.0,0.0,0.0,1.0
1489584085257570437,45,1489584085254528306,,-29.1149597168,-29.0952892303,133.992034912,0.00362100009806,1.0,0.0,0.0,0.0,1.0,0.0,0.0,0.0,1.0,0.0,1.34146344662,1.8292683363,1.0,0.0,0.0,0.0,1.0,0.0,0.0,0.0,1.0,2.20266552734,-0.962469067383,10.0412817627,1.0,0.0,0.0,0.0,1.0,0.0,0.0,0.0,1.0
1489584085278094312,46,1489584085276068013,,-29.4715862274,-28.4460353851,132.723861694,0.00253900000826,1.0,0.0,0.0,0.0,1.0,0.0,0.0,0.0,1.0,-0.304878056049,2.25609779358,2.01219511032,1.0,0.0,0.0,0.0,1.0,0.0,0.0,0.0,1.0,2.23618435059,-1.26892687988,9.90241806641,1.0,0.0,0.0,0.0,1.0,0.0,0.0,0.0,1.0
1489584085301092819,47,1489584085298816781,,-29.8130531311,-27.7840995789,131.367248535,0.00269900006242,1.0,0.0,0.0,0.0,1.0,0.0,0.0,0.0,1.0,0.0609756112099,2.80487799644,1.46341466904,1.0,0.0,0.0,0.0,1.0,0.0,0.0,0.0,1.0,1.93930334473,-1.02950671387,9.98860932617,1.0,0.0,0.0,0.0,1.0,0.0,0.0,0.0,1.0
1489584085326517936,48,1489584085321972214,,-30.0972099304,-27.1587352753,130.082183838,0.0025349999778,1.0,0.0,0.0,0.0,1.0,0.0,0.0,0.0,1.0,0.487804889679,2.37804889679,0.914634168148,1.0,0.0,0.0,0.0,1.0,0.0,0.0,0.0,1.0,1.89620771484,-1.26413847656,9.90241806641,1.0,0.0,0.0,0.0,1.0,0.0,0.0,0.0,1.0
1489584085348475038,49,1489584085345578011,,-30.3786621094,-26.4437217712,128.591140747,0.00448800018057,1.0,0.0,0.0,0.0,1.0,0.0,0.0,0.0,1.0,0.670731723309,1.03658533096,0.914634168148,1.0,0.0,0.0,0.0,1.0,0.0,0.0,0.0,1.0,1.74776721191,-1.21625444336,9.86411083984,1.0,0.0,0.0,0.0,1.0,0.0,0.0,0.0,1.0
1489584085370673963,50,1489584085367577249,,-30.6580677032,-25.7834415436,127.23097229,0.00594699988142,1.0,0.0,0.0,0.0,1.0,0.0,0.0,0.0,1.0,-0.0609756112099,0.914634168148,0.670731723309,1.0,0.0,0.0,0.0,1.0,0.0,0.0,0.0,1.0,1.92972653809,-0.866701000977,10.1897222656,1.0,0.0,0.0,0.0,1.0,0.0,0.0,0.0,1.0
1489584085389607684,51,1489584085387515760,,-30.954328537,-25.1742420197,125.992393494,0.0049379998818,1.0,0.0,0.0,0.0,1.0,0.0,0.0,0.0,1.0,-0.426829278469,0.304878056049,0.914634168148,1.0,0.0,0.0,0.0,1.0,0.0,0.0,0.0,1.0,1.90578452148,-1.03429511719,9.97903251953,1.0,0.0,0.0,0.0,1.0,0.0,0.0,0.0,1.0
1489584085412371972,52,1489584085410017705,,-31.2404251099,-24.5400428772,124.629577637,0.00374999991618,1.0,0.0,0.0,0.0,1.0,0.0,0.0,0.0,1.0,0.0,0.304878056049,0.975609779358,1.0,0.0,0.0,0.0,1.0,0.0,0.0,0.0,1.0,1.80522805176,-1.07739082014,9.82101520996,1.0,0.0,0.0,0.0,1.0,0.0,0.0,0.0,1.0
1489584085436025790,53,1489584085432278660,,-31.5251274109,-23.9469642639,123.359909058,0.006211000029,1.0,0.0,0.0,0.0,1.0,0.0,0.0,0.0,1.0,-0.12195122242,0.670731723309,1.2195122242,1.0,0.0,0.0,0.0,1.0,0.0,0.0,0.0,1.0,2.01591779785,-1.10612116699,9.82580361328,1.0,0.0,0.0,0.0,1.0,0.0,0.0,0.0,1.0
1489584085455968572,54,1489584085453228212,,-31.7379627228,-23.3579292297,122.029510498,0.00360699999146,1.0,0.0,0.0,0.0,1.0,0.0,0.0,0.0,1.0,-0.426829278469,1.8292683363,0.426829278469,1.0,0.0,0.0,0.0,1.0,0.0,0.0,0.0,1.0,2.03507141113,-1.10612116699,9.91199487305,1.0,0.0,0.0,0.0,1.0,0.0,0.0,0.0,1.0
1489584085477044217,55,1489584085474401565,,-31.9397525787,-22.7350406647,120.681907654,0.00291400006972,1.0,0.0,0.0,0.0,1.0,0.0,0.0,0.0,1.0,0.18292683363,2.98780488968,-1.52439022064,1.0,0.0,0.0,0.0,1.0,0.0,0.0,0.0,1.0,2.18351191406,-1.07260241682,10.1370498291,1.0,0.0,0.0,0.0,1.0,0.0,0.0,0.0,1.0
1489584085500587254,56,1489584085497153770,,-32.1277770996,-22.082359314,119.246742249,0.00239500007592,1.0,0.0,0.0,0.0,1.0,0.0,0.0,0.0,1.0,0.304878056049,3.7804877758,-1.09756100178,1.0,0.0,0.0,0.0,1.0,0.0,0.0,0.0,1.0,1.90099611816,-0.928950244141,9.84495722656,1.0,0.0,0.0,0.0,1.0,0.0,0.0,0.0,1.0
1489584085521479097,57,1489584085519588006,,-32.2586250305,-21.4370498657,117.795600891,0.00274599995464,1.0,0.0,0.0,0.0,1.0,0.0,0.0,0.0,1.0,0.426829278469,3.23170733452,-1.40243899822,1.0,0.0,0.0,0.0,1.0,0.0,0.0,0.0,1.0,1.97761057129,-1.1875240965,9.88326445312,1.0,0.0,0.0,0.0,1.0,0.0,0.0,0.0,1.0
1489584085548015567,58,1489584085545100676,,-32.3732070923,-20.8092632294,116.360733032,0.00313799991272,1.0,0.0,0.0,0.0,1.0,0.0,0.0,0.0,1.0,0.548780500889,3.41463422775,-0.731707334518,1.0,0.0,0.0,0.0,1.0,0.0,0.0,0.0,1.0,1.90578452148,-1.1540052002,9.8305920166,1.0,0.0,0.0,0.0,1.0,0.0,0.0,0.0,1.0
1489584085570798189,59,1489584085568154963,,-32.5137214661,-20.106842041,114.772834778,0.00530199985951,1.0,0.0,0.0,0.0,1.0,0.0,0.0,0.0,1.0,0.365853667259,2.01219511032,-0.853658556938,1.0,0.0,0.0,0.0,1.0,0.0,0.0,0.0,1.0,1.98239897461,-1.04866025408,9.97903251953,1.0,0.0,0.0,0.0,1.0,0.0,0.0,0.0,1.0
1489584085591352168,60,1489584085589545347,,-32.6496086121,-19.512304306,113.413673401,0.00293600000441,1.0,0.0,0.0,0.0,1.0,0.0,0.0,0.0,1.0,-0.609756112099,1.8902438879,0.12195122242,1.0,0.0,0.0,0.0,1.0,0.0,0.0,0.0,1.0,1.96324536133,-1.07739082014,10.0795889893,1.0,0.0,0.0,0.0,1.0,0.0,0.0,0.0,1.0
1489584085612530052,61,1489584085611078960,,-32.7796287537,-18.9530582428,112.119285583,0.00372399995103,1.0,0.0,0.0,0.0,1.0,0.0,0.0,0.0,1.0,-0.487804889679,1.03658533096,0.975609779358,1.0,0.0,0.0,0.0,1.0,0.0,0.0,0.0,1.0,1.89620771484,-1.01514150391,9.86889924316,1.0,0.0,0.0,0.0,1.0,0.0,0.0,0.0,1.0
1489584085635883454,62,1489584085633839447,,-32.901184082,-18.4113368988,110.803512573,0.00748600019142,1.0,0.0,0.0,0.0,1.0,0.0,0.0,0.0,1.0,-0.914634168148,1.09756100178,1.8292683363,1.0,0.0,0.0,0.0,1.0,0.0,0.0,0.0,1.0,2.17872351074,-0.943315454102,10.0077629395,1.0,0.0,0.0,0.0,1.0,0.0,0.0,0.0,1.0
1489584085656350558,63,1489584085654204520,,-32.9853210449,-17.924287796,109.614707947,0.00259499996901,1.0,0.0,0.0,0.0,1.0,0.0,0.0,0.0,1.0,-0.548780500889,1.8902438879,1.58536589146,1.0,0.0,0.0,0.0,1.0,0.0,0.0,0.0,1.0,2.19787712402,-0.991199487305,9.90241806641,1.0,0.0,0.0,0.0,1.0,0.0,0.0,0.0,1.0
1489584085678403285,64,1489584085677010006,,-33.050907135,-17.3864498138,108.288856506,0.00242600007914,1.0,0.0,0.0,0.0,1.0,0.0,0.0,0.0,1.0,-0.548780500889,2.56097555161,1.09756100178,1.0,0.0,0.0,0.0,1.0,0.0,0.0,0.0,1.0,1.97282216797,-1.14921679688,9.8784760498,1.0,0.0,0.0,0.0,1.0,0.0,0.0,0.0,1.0
1489584085702636008,65,1489584085699688513,,-33.096698761,-16.8378620148,106.963233948,0.00247199996375,1.0,0.0,0.0,0.0,1.0,0.0,0.0,0.0,1.0,0.731707334518,1.8902438879,0.487804889679,1.0,0.0,0.0,0.0,1.0,0.0,0.0,0.0,1.0,1.92014973145,-1.07260241682,9.82580361328,1.0,0.0,0.0,0.0,1.0,0.0,0.0,0.0,1.0
1489584085727013679,66,1489584085724796547,,-33.1059112549,-16.3160362244,105.719818115,0.00294700008817,1.0,0.0,0.0,0.0,1.0,0.0,0.0,0.0,1.0,1.15853655338,2.13414645195,0.731707334518,1.0,0.0,0.0,0.0,1.0,0.0,0.0,0.0,1.0,1.80043964844,-1.01992990723,9.97903251953,1.0,0.0,0.0,0.0,1.0,0.0,0.0,0.0,1.0
1489584085749945832,67,1489584085746032453,,-33.1371040344,-15.7559833527,104.362289429,0.00629599997774,1.0,0.0,0.0,0.0,1.0,0.0,0.0,0.0,1.0,-0.243902444839,0.731707334518,-0.0609756112099,1.0,0.0,0.0,0.0,1.0,0.0,0.0,0.0,1.0,1.87226569824,-0.91458503418,10.0029745361,1.0,0.0,0.0,0.0,1.0,0.0,0.0,0.0,1.0
1489584085769742573,68,1489584085766068412,,-33.161819458,-15.2923440933,103.154067993,0.00503899995238,1.0,0.0,0.0,0.0,1.0,0.0,0.0,0.0,1.0,-0.609756112099,1.03658533096,-0.548780500889,1.0,0.0,0.0,0.0,1.0,0.0,0.0,0.0,1.0,1.95845695801,-1.09175595703,9.98382092285,1.0,0.0,0.0,0.0,1.0,0.0,0.0,0.0,1.0
1489584085791480508,69,1489584085789140303,,-33.1739234924,-14.7487630844,101.715148926,0.00390799995512,1.0,0.0,0.0,0.0,1.0,0.0,0.0,0.0,1.0,-0.670731723309,2.07317066193,-1.2195122242,1.0,0.0,0.0,0.0,1.0,0.0,0.0,0.0,1.0,2.03507141113,-1.13006318359,9.91199487305,1.0,0.0,0.0,0.0,1.0,0.0,0.0,0.0,1.0
1489584085813863339,70,1489584085811581884,,-33.1413574219,-14.256105423,100.367904663,0.00262299994938,1.0,0.0,0.0,0.0,1.0,0.0,0.0,0.0,1.0,-0.365853667259,3.04878044128,-1.64634156227,1.0,0.0,0.0,0.0,1.0,0.0,0.0,0.0,1.0,2.01591779785,-1.13485158691,9.92157167969,1.0,0.0,0.0,0.0,1.0,0.0,0.0,0.0,1.0
1489584085834615495,71,1489584085832776279,,-33.0914497375,-13.7947349548,99.1066741943,0.00505399983376,1.0,0.0,0.0,0.0,1.0,0.0,0.0,0.0,1.0,-0.609756112099,3.04878044128,-1.46341466904,1.0,0.0,0.0,0.0,1.0,0.0,0.0,0.0,1.0,1.94409174805,-1.19710090314,10.0317049561,1.0,0.0,0.0,0.0,1.0,0.0,0.0,0.0,1.0
1489584085857544418,72,1489584085855361505,,-33.0593147278,-13.3216161728,97.8137893677,0.00259399996139,1.0,0.0,0.0,0.0,1.0,0.0,0.0,0.0,1.0,-0.853658556938,2.31707310677,-0.914634168148,1.0,0.0,0.0,0.0,1.0,0.0,0.0,0.0,1.0,2.02070620117,-1.09175595703,9.98382092285,1.0,0.0,0.0,0.0,1.0,0.0,0.0,0.0,1.0
1489584085877907616,73,1489584085875985223,,-33.0114479065,-12.9041690826,96.6333465576,0.00252100010403,1.0,0.0,0.0,0.0,1.0,0.0,0.0,0.0,1.0,-0.426829278469,2.56097555161,-1.09756100178,1.0,0.0,0.0,0.0,1.0,0.0,0.0,0.0,1.0,2.11168571813,-1.06781401349,9.98382092285,1.0,0.0,0.0,0.0,1.0,0.0,0.0,0.0,1.0
1489584085900703154,74,1489584085898516855,,-32.930229187,-12.422498703,95.3276977539,0.00267000007443,1.0,0.0,0.0,0.0,1.0,0.0,0.0,0.0,1.0,0.304878056049,4.08536577225,-0.365853667259,1.0,0.0,0.0,0.0,1.0,0.0,0.0,0.0,1.0,2.11168571813,-1.12527478027,9.89762966309,1.0,0.0,0.0,0.0,1.0,0.0,0.0,0.0,1.0
1489584085923622234,75,1489584085921225467,,-32.8001022339,-11.9762735367,94.0622253418,0.00249399989843,1.0,0.0,0.0,0.0,1.0,0.0,0.0,0.0,1.0,0.609756112099,4.08536577225,0.18292683363,1.0,0.0,0.0,0.0,1.0,0.0,0.0,0.0,1.0,2.01591779785,-1.14442839355,9.7827079834,1.0,0.0,0.0,0.0,1.0,0.0,0.0,0.0,1.0
1489584085945799179,76,1489584085943472828,,-32.6686286926,-11.5632810593,92.8929672241,0.00269500003196,1.0,0.0,0.0,0.0,1.0,0.0,0.0,0.0,1.0,1.15853655338,3.41463422775,0.365853667259,1.0,0.0,0.0,0.0,1.0,0.0,0.0,0.0,1.0,1.95366855469,-1.01992990723,10.0939541992,1.0,0.0,0.0,0.0,1.0,0.0,0.0,0.0,1.0
1489584085968976227,77,1489584085967289980,,-32.5275154114,-11.1212291718,91.6558609009,0.00289899995551,1.0,0.0,0.0,0.0,1.0,0.0,0.0,0.0,1.0,0.609756112099,3.35365867615,-0.0609756112099,1.0,0.0,0.0,0.0,1.0,0.0,0.0,0.0,1.0,1.87226569824,-1.00556469727,9.95509050293,1.0,0.0,0.0,0.0,1.0,0.0,0.0,0.0,1.0
1489584085991596036,78,1489584085988872238,,-32.3619804382,-10.7167873383,90.4434814453,0.00407900009304,1.0,0.0,0.0,0.0,1.0,0.0,0.0,0.0,1.0,-0.12195122242,3.90243911743,-0.243902444839,1.0,0.0,0.0,0.0,1.0,0.0,0.0,0.0,1.0,1.90099611816,-1.13485158691,10.0077629395,1.0,0.0,0.0,0.0,1.0,0.0,0.0,0.0,1.0
1489584086014354283,79,1489584086012647463,,-32.1914978027,-10.3218765259,89.2052841187,0.00305299996398,1.0,0.0,0.0,0.0,1.0,0.0,0.0,0.0,1.0,-0.609756112099,2.56097555161,-0.12195122242,1.0,0.0,0.0,0.0,1.0,0.0,0.0,0.0,1.0,1.84353527832,-1.21625444336,9.99339772949,1.0,0.0,0.0,0.0,1.0,0.0,0.0,0.0,1.0
1489584086037024561,80,1489584086034610189,,-32.0554199219,-9.97920799255,88.0445556641,0.0031270000618,1.0,0.0,0.0,0.0,1.0,0.0,0.0,0.0,1.0,-0.670731723309,0.914634168148,0.426829278469,1.0,0.0,0.0,0.0,1.0,0.0,0.0,0.0,1.0,1.82438166504,-1.19710090314,9.94551369629,1.0,0.0,0.0,0.0,1.0,0.0,0.0,0.0,1.0
1489584086057468436,81,1489584086055123648,,-31.9424552917,-9.67468357086,87.0043792725,0.00319699989632,1.0,0.0,0.0,0.0,1.0,0.0,0.0,0.0,1.0,-0.487804889679,-0.304878056049,0.975609779358,1.0,0.0,0.0,0.0,1.0,0.0,0.0,0.0,1.0,1.82917006836,-1.13485158691,10.0029745361,1.0,0.0,0.0,0.0,1.0,0.0,0.0,0.0,1.0
1489584086079379184,82,1489584086077220541,,-31.8318004608,-9.35733985901,85.9290084839,0.00316000008024,1.0,0.0,0.0,0.0,1.0,0.0,0.0,0.0,1.0,0.0,-2.07317066193,2.07317066193,1.0,0.0,0.0,0.0,1.0,0.0,0.0,0.0,1.0,1.69988317871,-1.09654436035,9.92157167969,1.0,0.0,0.0,0.0,1.0,0.0,0.0,0.0,1.0
1489584086102170295,83,1489584086099977486,,-31.7471828461,-9.05673980713,84.8715362549,0.00305299996398,1.0,0.0,0.0,0.0,1.0,0.0,0.0,0.0,1.0,0.426829278469,-2.62195134163,2.62195134163,1.0,0.0,0.0,0.0,1.0,0.0,0.0,0.0,1.0,1.97761057129,-1.13485158691,9.95509050293,1.0,0.0,0.0,0.0,1.0,0.0,0.0,0.0,1.0
1489584086125587082,84,1489584086122914013,,-31.6636161804,-8.78472232819,83.828918457,0.0029190001078,1.0,0.0,0.0,0.0,1.0,0.0,0.0,0.0,1.0,1.34146344662,-1.76829278469,2.5,1.0,0.0,0.0,0.0,1.0,0.0,0.0,0.0,1.0,2.12605122035,-1.28329208984,9.74918916016,1.0,0.0,0.0,0.0,1.0,0.0,0.0,0.0,1.0
1489584086149070171,85,1489584086145941270,,-31.5733451843,-8.49775314331,82.779510498,0.00278500001878,1.0,0.0,0.0,0.0,1.0,0.0,0.0,0.0,1.0,2.62195134163,-2.56097555161,2.37804889679,1.0,0.0,0.0,0.0,1.0,0.0,0.0,0.0,1.0,1.92972653809,-1.37906015625,9.80186159668,1.0,0.0,0.0,0.0,1.0,0.0,0.0,0.0,1.0
1489584086169263422,86,1489584086166870040,,-31.5128440857,-8.21383476257,81.8516235352,0.00379800004885,1.0,0.0,0.0,0.0,1.0,0.0,0.0,0.0,1.0,3.04878044128,-3.29268312454,2.31707310677,1.0,0.0,0.0,0.0,1.0,0.0,0.0,0.0,1.0,1.97761057129,-1.30723410645,9.96466730957,1.0,0.0,0.0,0.0,1.0,0.0,0.0,0.0,1.0
1489584086189516307,87,1489584086187272665,,-31.4385261536,-7.92933988571,80.9345932007,0.00303200003691,1.0,0.0,0.0,0.0,1.0,0.0,0.0,0.0,1.0,2.25609779358,-3.17073178291,1.76829278469,1.0,0.0,0.0,0.0,1.0,0.0,0.0,0.0,1.0,2.05422502441,-1.09175595703,10.1514150391,1.0,0.0,0.0,0.0,1.0,0.0,0.0,0.0,1.0
1489584086212620230,88,1489584086210311119,,-31.3402023315,-7.59613656998,79.841506958,0.00295599992387,1.0,0.0,0.0,0.0,1.0,0.0,0.0,0.0,1.0,0.792682945728,-1.09756100178,-0.975609779358,1.0,0.0,0.0,0.0,1.0,0.0,0.0,0.0,1.0,2.25533796387,-0.847547387695,10.1274730225,1.0,0.0,0.0,0.0,1.0,0.0,0.0,0.0,1.0
1489584086234246447,89,1489584086232519992,,-31.2157993317,-7.24446344376,78.7208633423,0.0044900001958,1.0,0.0,0.0,0.0,1.0,0.0,0.0,0.0,1.0,0.18292683363,2.74390244484,-4.08536577225,1.0,0.0,0.0,0.0,1.0,0.0,0.0,0.0,1.0,2.40856701625,-0.818816967773,10.1131078125,1.0,0.0,0.0,0.0,1.0,0.0,0.0,0.0,1.0
1489584086255037926,90,1489584086252967461,,-31.0149345398,-6.89973592758,77.6270065308,0.0025420000311,1.0,0.0,0.0,0.0,1.0,0.0,0.0,0.0,1.0,0.243902444839,5.36585378647,-5.48780488968,1.0,0.0,0.0,0.0,1.0,0.0,0.0,0.0,1.0,2.31279880371,-0.732625708008,9.98860932617,1.0,0.0,0.0,0.0,1.0,0.0,0.0,0.0,1.0
1489584086277420288,91,1489584086275143677,,-30.7391815186,-6.50744152069,76.4299087524,0.00294500007294,1.0,0.0,0.0,0.0,1.0,0.0,0.0,0.0,1.0,0.670731723309,7.25609779358,-5.73170757294,1.0,0.0,0.0,0.0,1.0,0.0,0.0,0.0,1.0,2.17872351074,-0.790086547852,9.97424411621,1.0,0.0,0.0,0.0,1.0,0.0,0.0,0.0,1.0
1489584086300694054,92,1489584086298498276,,-30.4160861969,-6.13022136688,75.2640686035,0.00288400007412,1.0,0.0,0.0,0.0,1.0,0.0,0.0,0.0,1.0,0.670731723309,7.37804937363,-4.32926845551,1.0,0.0,0.0,0.0,1.0,0.0,0.0,0.0,1.0,2.04464821777,-0.708683691406,9.94551369629,1.0,0.0,0.0,0.0,1.0,0.0,0.0,0.0,1.0
1489584086322263761,93,1489584086320636889,,-30.0639667511,-5.81009101868,74.1335754395,0.00281700002961,1.0,0.0,0.0,0.0,1.0,0.0,0.0,0.0,1.0,0.0,6.40243911743,-1.95121955872,1.0,0.0,0.0,0.0,1.0,0.0,0.0,0.0,1.0,2.00155258789,-0.866701000977,10.0843773926,1.0,0.0,0.0,0.0,1.0,0.0,0.0,0.0,1.0
1489584086343531333,94,1489584086341329149,,-29.7839813232,-5.55994987488,73.2050018311,0.00324700004421,1.0,0.0,0.0,0.0,1.0,0.0,0.0,0.0,1.0,0.0609756112099,5.36585378647,0.304878056049,1.0,0.0,0.0,0.0,1.0,0.0,0.0,0.0,1.0,1.93930334473,-0.876277807617,9.95030209961,1.0,0.0,0.0,0.0,1.0,0.0,0.0,0.0,1.0
1489584086366199059,95,1489584086364004895,,-29.5124206543,-5.35625934601,72.3241424561,0.00250900001265,1.0,0.0,0.0,0.0,1.0,0.0,0.0,0.0,1.0,0.365853667259,2.98780488968,2.19512200356,1.0,0.0,0.0,0.0,1.0,0.0,0.0,0.0,1.0,1.92972653809,-0.957680664062,9.94072529297,1.0,0.0,0.0,0.0,1.0,0.0,0.0,0.0,1.0
1489584086389081211,96,1489584086386920433,,-29.2559814453,-5.16708946228,71.4599456787,0.00334700010717,1.0,0.0,0.0,0.0,1.0,0.0,0.0,0.0,1.0,1.40243899822,1.2804877758,4.02439022064,1.0,0.0,0.0,0.0,1.0,0.0,0.0,0.0,1.0,1.838746875,-0.957680664062,9.93593688965,1.0,0.0,0.0,0.0,1.0,0.0,0.0,0.0,1.0
1489584086411708416,97,1489584086409546336,,-29.0374221802,-5.00760030746,70.6518707275,0.00314199994318,1.0,0.0,0.0,0.0,1.0,0.0,0.0,0.0,1.0,1.40243899822,-0.487804889679,5.67073154449,1.0,0.0,0.0,0.0,1.0,0.0,0.0,0.0,1.0,1.89620771484,-1.09175595703,9.84016882324,1.0,0.0,0.0,0.0,1.0,0.0,0.0,0.0,1.0
1489584086433694997,98,1489584086432032969,,-28.8567409515,-4.8726682663,69.9084014893,0.00499399984255,1.0,0.0,0.0,0.0,1.0,0.0,0.0,0.0,1.0,0.914634168148,-1.64634156227,5.67073154449,1.0,0.0,0.0,0.0,1.0,0.0,0.0,0.0,1.0,1.92493813477,-1.04866025408,9.99818613281,1.0,0.0,0.0,0.0,1.0,0.0,0.0,0.0,1.0
1489584086459425062,99,1489584086457732669,,-28.6513023376,-4.756524086,69.0354614258,0.00547500001267,1.0,0.0,0.0,0.0,1.0,0.0,0.0,0.0,1.0,0.975609779358,-0.731707334518,4.20731735229,1.0,0.0,0.0,0.0,1.0,0.0,0.0,0.0,1.0,2.08774370153,-1.26413847656,9.86889924316,1.0,0.0,0.0,0.0,1.0,0.0,0.0,0.0,1.0
1489584086479216490,100,1489584086477915919,,-28.4759922028,-4.64439296722,68.302734375,0.00255999993533,1.0,0.0,0.0,0.0,1.0,0.0,0.0,0.0,1.0,0.853658556938,0.304878056049,2.80487799644,1.0,0.0,0.0,0.0,1.0,0.0,0.0,0.0,1.0,2.14041643031,-1.12527478027,9.99818613281,1.0,0.0,0.0,0.0,1.0,0.0,0.0,0.0,1.0
1489584086503775255,101,1489584086502171872,,-28.2632789612,-4.52571105957,67.4711990356,0.00270600011572,1.0,0.0,0.0,0.0,1.0,0.0,0.0,0.0,1.0,0.365853667259,0.426829278469,0.792682945728,1.0,0.0,0.0,0.0,1.0,0.0,0.0,0.0,1.0,2.11168571813,-1.04387185076,10.2711251221,1.0,0.0,0.0,0.0,1.0,0.0,0.0,0.0,1.0
1489584086525667409,102,1489584086523411840,,-28.0526161194,-4.40091133118,66.6572570801,0.00242900010198,1.0,0.0,0.0,0.0,1.0,0.0,0.0,0.0,1.0,-0.12195122242,1.2195122242,-0.487804889679,1.0,0.0,0.0,0.0,1.0,0.0,0.0,0.0,1.0,2.08774370153,-1.05823706072,9.95987890625,1.0,0.0,0.0,0.0,1.0,0.0,0.0,0.0,1.0
1489584086547260970,103,1489584086544692901,,-27.7986297607,-4.26770830154,65.7636642456,0.00442099990323,1.0,0.0,0.0,0.0,1.0,0.0,0.0,0.0,1.0,-0.609756112099,1.8902438879,-1.70731711388,1.0,0.0,0.0,0.0,1.0,0.0,0.0,0.0,1.0,2.05901342773,-1.03908344744,9.91199487305,1.0,0.0,0.0,0.0,1.0,0.0,0.0,0.0,1.0
1489584086570252549,104,1489584086567099221,,-27.5444736481,-4.10521364212,64.8429870605,0.00349600007758,1.0,0.0,0.0,0.0,1.0,0.0,0.0,0.0,1.0,-0.18292683363,3.65853667259,-3.41463422775,1.0,0.0,0.0,0.0,1.0,0.0,0.0,0.0,1.0,2.07337849156,-1.21625444336,9.92157167969,1.0,0.0,0.0,0.0,1.0,0.0,0.0,0.0,1.0
1489584086592159391,105,1489584086589044552,,-27.2608280182,-3.95141863823,63.9361000061,0.00308799999766,1.0,0.0,0.0,0.0,1.0,0.0,0.0,0.0,1.0,0.731707334518,4.75609779358,-3.53658556938,1.0,0.0,0.0,0.0,1.0,0.0,0.0,0.0,1.0,2.1691467041,-1.03429511719,10.1418382324,1.0,0.0,0.0,0.0,1.0,0.0,0.0,0.0,1.0
1489584086613532536,106,1489584086610708634,,-26.9574890137,-3.78800463676,63.0601882935,0.00261599989608,1.0,0.0,0.0,0.0,1.0,0.0,0.0,0.0,1.0,1.46341466904,5.97560977936,-3.04878044128,1.0,0.0,0.0,0.0,1.0,0.0,0.0,0.0,1.0,2.10689731481,-1.00077629395,9.81143840332,1.0,0.0,0.0,0.0,1.0,0.0,0.0,0.0,1.0
1489584086634400993,107,1489584086631929487,,-26.6399517059,-3.63401699066,62.22240448,0.00489100022241,1.0,0.0,0.0,0.0,1.0,0.0,0.0,0.0,1.0,2.07317066193,4.51219558716,-2.62195134163,1.0,0.0,0.0,0.0,1.0,0.0,0.0,0.0,1.0,1.9105729248,-0.900219824219,10.060435376,1.0,0.0,0.0,0.0,1.0,0.0,0.0,0.0,1.0
1489584086656030700,108,1489584086653352787,,-26.3477249146,-3.4795987606,61.4284439087,0.00241399998777,1.0,0.0,0.0,0.0,1.0,0.0,0.0,0.0,1.0,1.64634156227,3.29268312454,-0.792682945728,1.0,0.0,0.0,0.0,1.0,0.0,0.0,0.0,1.0,1.87705410156,-0.967257470703,9.99339772949,1.0,0.0,0.0,0.0,1.0,0.0,0.0,0.0,1.0
1489584086679396654,109,1489584086675861868,,-26.0667285919,-3.33764743805,60.6592559814,0.00275800004601,1.0,0.0,0.0,0.0,1.0,0.0,0.0,0.0,1.0,1.52439022064,2.31707310677,1.2195122242,1.0,0.0,0.0,0.0,1.0,0.0,0.0,0.0,1.0,1.89620771484,-0.61770402832,10.0891657959,1.0,0.0,0.0,0.0,1.0,0.0,0.0,0.0,1.0
1489584086707345101,110,1489584086700614278,,-25.7900123596,-3.23935890198,59.9246788025,0.00304399989545,1.0,0.0,0.0,0.0,1.0,0.0,0.0,0.0,1.0,0.853658556938,1.58536589146,1.40243899822,1.0,0.0,0.0,0.0,1.0,0.0,0.0,0.0,1.0,2.02549460449,-0.952892260742,9.84016882324,1.0,0.0,0.0,0.0,1.0,0.0,0.0,0.0,1.0
1489584086730464076,111,1489584086722245651,,-25.5308437347,-3.18203496933,59.2684555054,0.0032389999833,1.0,0.0,0.0,0.0,1.0,0.0,0.0,0.0,1.0,0.670731723309,1.52439022064,2.01219511032,1.0,0.0,0.0,0.0,1.0,0.0,0.0,0.0,1.0,2.00155258789,-0.938527050781,10.2040874756,1.0,0.0,0.0,0.0,1.0,0.0,0.0,0.0,1.0
1489584086748653736,112,1489584086744896085,,-25.2648239136,-3.14479351044,58.5369911194,0.00494599994272,1.0,0.0,0.0,0.0,1.0,0.0,0.0,0.0,1.0,0.304878056049,0.0,2.13414645195,1.0,0.0,0.0,0.0,1.0,0.0,0.0,0.0,1.0,2.00155258789,-0.905008227539,9.98382092285,1.0,0.0,0.0,0.0,1.0,0.0,0.0,0.0,1.0
1489584086769884224,113,1489584086765903605,,-25.0507907867,-3.11228370667,57.900680542,0.00513599999249,1.0,0.0,0.0,0.0,1.0,0.0,0.0,0.0,1.0,-0.12195122242,-0.487804889679,2.01219511032,1.0,0.0,0.0,0.0,1.0,0.0,0.0,0.0,1.0,1.99197578125,-0.847547387695,10.0412817627,1.0,0.0,0.0,0.0,1.0,0.0,0.0,0.0,1.0
1489584086790625286,114,1489584086788073884,,-24.8223323822,-3.08331489563,57.2181129456,0.00325500010513,1.0,0.0,0.0,0.0,1.0,0.0,0.0,0.0,1.0,-0.304878056049,0.243902444839,1.2195122242,1.0,0.0,0.0,0.0,1.0,0.0,0.0,0.0,1.0,1.9105729248,-1.04866025408,9.97903251953,1.0,0.0,0.0,0.0,1.0,0.0,0.0,0.0,1.0
1489584086812284993,115,1489584086809338435,,-24.6048545837,-3.07160639763,56.6163291931,0.00281700002961,1.0,0.0,0.0,0.0,1.0,0.0,0.0,0.0,1.0,-0.609756112099,0.792682945728,0.487804889679,1.0,0.0,0.0,0.0,1.0,0.0,0.0,0.0,1.0,2.07816689489,-0.962469067383,10.0556469727,1.0,0.0,0.0,0.0,1.0,0.0,0.0,0.0,1.0
1489584086836538914,116,1489584086832845951,,-24.3772583008,-3.04402732849,55.9000053406,0.00547599978745,1.0,0.0,0.0,0.0,1.0,0.0,0.0,0.0,1.0,-0.853658556938,1.15853655338,-0.18292683363,1.0,0.0,0.0,0.0,1.0,0.0,0.0,0.0,1.0,2.14041643031,-0.952892260742,10.0508585693,1.0,0.0,0.0,0.0,1.0,0.0,0.0,0.0,1.0
1489584086857267945,117,1489584086854524147,,-24.1560230255,-3.00973439217,55.2180938721,0.00310000008903,1.0,0.0,0.0,0.0,1.0,0.0,0.0,0.0,1.0,-0.426829278469,1.52439022064,-0.670731723309,1.0,0.0,0.0,0.0,1.0,0.0,0.0,0.0,1.0,2.06380183105,-1.02950671387,9.92636008301,1.0,0.0,0.0,0.0,1.0,0.0,0.0,0.0,1.0
1489584086885419412,118,1489584086877358539,,-23.9158058167,-2.9837872982,54.5321121216,0.0031500000041,1.0,0.0,0.0,0.0,1.0,0.0,0.0,0.0,1.0,-0.365853667259,1.95121955872,-1.2195122242,1.0,0.0,0.0,0.0,1.0,0.0,0.0,0.0,1.0,2.08295529821,-0.91458503418,10.0364933594,1.0,0.0,0.0,0.0,1.0,0.0,0.0,0.0,1.0
1489584086907217713,119,1489584086899276058,,-23.6777973175,-2.95149707794,53.9019622803,0.00312000000849,1.0,0.0,0.0,0.0,1.0,0.0,0.0,0.0,1.0,0.365853667259,1.76829278469,-0.426829278469,1.0,0.0,0.0,0.0,1.0,0.0,0.0,0.0,1.0,2.16435844691,-0.857124194336,9.78749638672,1.0,0.0,0.0,0.0,1.0,0.0,0.0,0.0,1.0
1489584086928544034,120,1489584086921101493,,-23.4463825226,-2.90790247917,53.2846069336,0.00341699994169,1.0,0.0,0.0,0.0,1.0,0.0,0.0,0.0,1.0,-0.0609756112099,1.8292683363,-0.243902444839,1.0,0.0,0.0,0.0,1.0,0.0,0.0,0.0,1.0,2.14041643031,-0.809240161133,10.1322614258,1.0,0.0,0.0,0.0,1.0,0.0,0.0,0.0,1.0
1489584086948481660,121,1489584086944581978,,-23.1937465668,-2.86576938629,52.6231231689,0.00339399999939,1.0,0.0,0.0,0.0,1.0,0.0,0.0,0.0,1.0,0.487804889679,3.17073178291,-0.731707334518,1.0,0.0,0.0,0.0,1.0,0.0,0.0,0.0,1.0,2.14520483363,-0.928950244141,10.0269165527,1.0,0.0,0.0,0.0,1.0,0.0,0.0,0.0,1.0
1489584086970543033,122,1489584086966575695,,-22.9199676514,-2.83921909332,52.0420684814,0.00292199989781,1.0,0.0,0.0,0.0,1.0,0.0,0.0,0.0,1.0,0.548780500889,4.02439022064,-1.52439022064,1.0,0.0,0.0,0.0,1.0,0.0,0.0,0.0,1.0,2.14041643031,-0.957680664062,10.0795889893,1.0,0.0,0.0,0.0,1.0,0.0,0.0,0.0,1.0
1489584086993019821,123,1489584086988772588,,-22.6316738129,-2.80908370018,51.4076309204,0.00303300004452,1.0,0.0,0.0,0.0,1.0,0.0,0.0,0.0,1.0,0.18292683363,4.45121955872,-1.95121955872,1.0,0.0,0.0,0.0,1.0,0.0,0.0,0.0,1.0,2.03985981445,-0.967257470703,9.89284125977,1.0,0.0,0.0,0.0,1.0,0.0,0.0,0.0,1.0
1489584087015420881,124,1489584087011218960,,-22.3515949249,-2.78447890282,50.7955703735,0.00306400004774,1.0,0.0,0.0,0.0,1.0,0.0,0.0,0.0,1.0,-0.0609756112099,4.08536577225,-1.34146344662,1.0,0.0,0.0,0.0,1.0,0.0,0.0,0.0,1.0,2.07337849156,-1.02950671387,10.0029745361,1.0,0.0,0.0,0.0,1.0,0.0,0.0,0.0,1.0
1489584087037696993,125,1489584087033311218,,-22.0849456787,-2.76372981071,50.2250289917,0.00514600006863,1.0,0.0,0.0,0.0,1.0,0.0,0.0,0.0,1.0,0.0,4.39024400711,-1.46341466904,1.0,0.0,0.0,0.0,1.0,0.0,0.0,0.0,1.0,2.06380183105,-1.01992990723,9.97903251953,1.0,0.0,0.0,0.0,1.0,0.0,0.0,0.0,1.0
1489584087062203309,126,1489584087055818215,,-21.7942638397,-2.75722026825,49.6479110718,0.00277499994263,1.0,0.0,0.0,0.0,1.0,0.0,0.0,0.0,1.0,0.426829278469,3.96341490746,-1.15853655338,1.0,0.0,0.0,0.0,1.0,0.0,0.0,0.0,1.0,1.8626888916,-0.957680664062,9.89284125977,1.0,0.0,0.0,0.0,1.0,0.0,0.0,0.0,1.0
1489584087087242803,127,1489584087077645525,,-21.5242824554,-2.74300050735,49.1061592102,0.00292499992065,1.0,0.0,0.0,0.0,1.0,0.0,0.0,0.0,1.0,0.853658556938,2.68292689323,-0.792682945728,1.0,0.0,0.0,0.0,1.0,0.0,0.0,0.0,1.0,1.93930334473,-0.861912597656,10.1083194092,1.0,0.0,0.0,0.0,1.0,0.0,0.0,0.0,1.0
1489584087107490636,128,1489584087099813773,,-21.2954044342,-2.72222471237,48.5887336731,0.0028230000753,1.0,0.0,0.0,0.0,1.0,0.0,0.0,0.0,1.0,0.365853667259,1.40243899822,0.548780500889,1.0,0.0,0.0,0.0,1.0,0.0,0.0,0.0,1.0,2.09732050817,-0.833182177734,9.96466730957,1.0,0.0,0.0,0.0,1.0,0.0,0.0,0.0,1.0
1489584087128570396,129,1489584087121377855,,-21.0835075378,-2.73359131813,48.1041946411,0.00249100010842,1.0,0.0,0.0,0.0,1.0,0.0,0.0,0.0,1.0,0.18292683363,1.15853655338,0.792682945728,1.0,0.0,0.0,0.0,1.0,0.0,0.0,0.0,1.0,1.98239897461,-0.981622680664,10.1418382324,1.0,0.0,0.0,0.0,1.0,0.0,0.0,0.0,1.0
1489584087148071512,130,1489584087145806724,,-20.866651535,-2.75653123856,47.5873451233,0.00298499991186,1.0,0.0,0.0,0.0,1.0,0.0,0.0,0.0,1.0,0.243902444839,1.34146344662,0.304878056049,1.0,0.0,0.0,0.0,1.0,0.0,0.0,0.0,1.0,2.1930887207,-0.928950244141,9.90241806641,1.0,0.0,0.0,0.0,1.0,0.0,0.0,0.0,1.0
1489584087170957362,131,1489584087168398668,,-20.6721363068,-2.77688598633,47.1553039551,0.00332399993204,1.0,0.0,0.0,0.0,1.0,0.0,0.0,0.0,1.0,0.487804889679,1.09756100178,0.365853667259,1.0,0.0,0.0,0.0,1.0,0.0,0.0,0.0,1.0,2.05422502441,-1.06302561017,9.95987890625,1.0,0.0,0.0,0.0,1.0,0.0,0.0,0.0,1.0
1489584087191542643,132,1489584087188742127,,-20.5023765564,-2.78147292137,46.7398071289,0.00323099992238,1.0,0.0,0.0,0.0,1.0,0.0,0.0,0.0,1.0,-0.0609756112099,1.46341466904,0.426829278469,1.0,0.0,0.0,0.0,1.0,0.0,0.0,0.0,1.0,2.11647412145,-1.01992990723,10.0891657959,1.0,0.0,0.0,0.0,1.0,0.0,0.0,0.0,1.0
1489584087214539848,133,1489584087211245478,,-20.3012371063,-2.80507183075,46.2691841125,0.00259899999946,1.0,0.0,0.0,0.0,1.0,0.0,0.0,0.0,1.0,-0.670731723309,1.70731711388,0.18292683363,1.0,0.0,0.0,0.0,1.0,0.0,0.0,0.0,1.0,2.08295529821,-0.957680664062,10.060435376,1.0,0.0,0.0,0.0,1.0,0.0,0.0,0.0,1.0
1489584087236525179,134,1489584087233178570,,-20.100818634,-2.84457468987,45.8944358826,0.004995000083,1.0,0.0,0.0,0.0,1.0,0.0,0.0,0.0,1.0,-0.18292683363,2.07317066193,0.304878056049,1.0,0.0,0.0,0.0,1.0,0.0,0.0,0.0,1.0,2.12126281703,-0.952892260742,10.1178962158,1.0,0.0,0.0,0.0,1.0,0.0,0.0,0.0,1.0
1489584087256758586,135,1489584087253417289,,-19.9171257019,-2.85528707504,45.4640388489,0.00282899988815,1.0,0.0,0.0,0.0,1.0,0.0,0.0,0.0,1.0,0.18292683363,2.07317066193,0.304878056049,1.0,0.0,0.0,0.0,1.0,0.0,0.0,0.0,1.0,1.93930334473,-1.01514150391,9.90720646973,1.0,0.0,0.0,0.0,1.0,0.0,0.0,0.0,1.0
1489584087283062556,136,1489584087276435535,,-19.7096424103,-2.85778069496,45.0232849121,0.00276300008409,1.0,0.0,0.0,0.0,1.0,0.0,0.0,0.0,1.0,0.670731723309,2.07317066193,0.426829278469,1.0,0.0,0.0,0.0,1.0,0.0,0.0,0.0,1.0,2.04464821777,-0.785298144531,10.0364933594,1.0,0.0,0.0,0.0,1.0,0.0,0.0,0.0,1.0
1489584087308424496,137,1489584087299406073,,-19.5029582977,-2.86707425117,44.5734100342,0.00295299990103,1.0,0.0,0.0,0.0,1.0,0.0,0.0,0.0,1.0,0.0609756112099,1.46341466904,1.15853655338,1.0,0.0,0.0,0.0,1.0,0.0,0.0,0.0,1.0,2.03985981445,-0.861912597656,10.1418382324,1.0,0.0,0.0,0.0,1.0,0.0,0.0,0.0,1.0
1489584087329369308,138,1489584087321745153,,-19.3072280884,-2.90194416046,44.1817588806,0.00260100001469,1.0,0.0,0.0,0.0,1.0,0.0,0.0,0.0,1.0,-0.304878056049,0.914634168148,0.975609779358,1.0,0.0,0.0,0.0,1.0,0.0,0.0,0.0,1.0,2.03028300781,-0.976834277344,9.94551369629,1.0,0.0,0.0,0.0,1.0,0.0,0.0,0.0,1.0
1489584087349569538,139,1489584087345731262,,-19.1304073334,-2.94253325462,43.7457618713,0.00302199996077,1.0,0.0,0.0,0.0,1.0,0.0,0.0,0.0,1.0,-0.487804889679,1.15853655338,0.975609779358,1.0,0.0,0.0,0.0,1.0,0.0,0.0,0.0,1.0,2.16435844691,-0.780509741211,10.0077629395,1.0,0.0,0.0,0.0,1.0,0.0,0.0,0.0,1.0
1489584087369355601,140,1489584087366353731,,-18.9733562469,-2.96485614777,43.3698806763,0.00309600005858,1.0,0.0,0.0,0.0,1.0,0.0,0.0,0.0,1.0,0.0,1.40243899822,0.426829278469,1.0,0.0,0.0,0.0,1.0,0.0,0.0,0.0,1.0,2.08295529821,-0.957680664062,9.96945571289,1.0,0.0,0.0,0.0,1.0,0.0,0.0,0.0,1.0
1489584087389459112,141,1489584087386706044,,-18.8153953552,-2.98664855957,43.0070648193,0.00352700008079,1.0,0.0,0.0,0.0,1.0,0.0,0.0,0.0,1.0,0.0609756112099,1.70731711388,0.0,1.0,0.0,0.0,0.0,1.0,0.0,0.0,0.0,1.0,2.11168571813,-1.03429511719,10.0556469727,1.0,0.0,0.0,0.0,1.0,0.0,0.0,0.0,1.0
1489584087412011265,142,1489584087409114499,,-18.6566047668,-2.9982316494,42.6098403931,0.00339800002985,1.0,0.0,0.0,0.0,1.0,0.0,0.0,0.0,1.0,0.0609756112099,1.76829278469,-0.12195122242,1.0,0.0,0.0,0.0,1.0,0.0,0.0,0.0,1.0,1.98239897461,-1.00077629395,9.93593688965,1.0,0.0,0.0,0.0,1.0,0.0,0.0,0.0,1.0
1489584087435416803,143,1489584087432480193,,-18.4922180176,-2.99491834641,42.241443634,0.00473099993542,1.0,0.0,0.0,0.0,1.0,0.0,0.0,0.0,1.0,0.12195122242,1.64634156227,0.0,1.0,0.0,0.0,0.0,1.0,0.0,0.0,0.0,1.0,2.12126281703,-0.943315454102,9.92157167969,1.0,0.0,0.0,0.0,1.0,0.0,0.0,0.0,1.0
1489584087457584894,144,1489584087454484534,,-18.3259906769,-3.01108503342,41.8619041443,0.00293199997395,1.0,0.0,0.0,0.0,1.0,0.0,0.0,0.0,1.0,-0.426829278469,2.13414645195,-0.487804889679,1.0,0.0,0.0,0.0,1.0,0.0,0.0,0.0,1.0,1.99676418457,-0.943315454102,9.83538041992,1.0,0.0,0.0,0.0,1.0,0.0,0.0,0.0,1.0
1489584087480072880,145,1489584087477127885,,-18.1550045013,-3.04323005676,41.4956626892,0.00305199995637,1.0,0.0,0.0,0.0,1.0,0.0,0.0,0.0,1.0,0.0,2.25609779358,-1.2195122242,1.0,0.0,0.0,0.0,1.0,0.0,0.0,0.0,1.0,2.02070620117,-0.928950244141,9.96945571289,1.0,0.0,0.0,0.0,1.0,0.0,0.0,0.0,1.0
1489584087502614721,146,1489584087499786444,,-17.9979743958,-3.06630039215,41.1206016541,0.00278500001878,1.0,0.0,0.0,0.0,1.0,0.0,0.0,0.0,1.0,-0.304878056049,1.2195122242,-0.609756112099,1.0,0.0,0.0,0.0,1.0,0.0,0.0,0.0,1.0,2.19787712402,-0.991199487305,10.0317049561,1.0,0.0,0.0,0.0,1.0,0.0,0.0,0.0,1.0
1489584087527542339,147,1489584087522922763,,-17.8438892365,-3.08574390411,40.7182388306,0.00259899999946,1.0,0.0,0.0,0.0,1.0,0.0,0.0,0.0,1.0,-0.304878056049,1.8292683363,-0.487804889679,1.0,0.0,0.0,0.0,1.0,0.0,0.0,0.0,1.0,2.03507141113,-0.957680664062,9.75397756348,1.0,0.0,0.0,0.0,1.0,0.0,0.0,0.0,1.0
1489584087551788240,148,1489584087548193610,,-17.6693134308,-3.11157798767,40.3217926025,0.00588099984452,1.0,0.0,0.0,0.0,1.0,0.0,0.0,0.0,1.0,-0.426829278469,2.31707310677,-1.2804877758,1.0,0.0,0.0,0.0,1.0,0.0,0.0,0.0,1.0,2.01112939453,-0.995987890625,9.86411083984,1.0,0.0,0.0,0.0,1.0,0.0,0.0,0.0,1.0
1489584087573820446,149,1489584087570541440,,-17.4967365265,-3.1297814846,39.9279937744,0.00325600011274,1.0,0.0,0.0,0.0,1.0,0.0,0.0,0.0,1.0,0.18292683363,2.31707310677,-0.853658556938,1.0,0.0,0.0,0.0,1.0,0.0,0.0,0.0,1.0,2.14520483363,-1.09175595703,9.91199487305,1.0,0.0,0.0,0.0,1.0,0.0,0.0,0.0,1.0
1489584087594812341,150,1489584087591387450,,-17.3459224701,-3.15651655197,39.620891571,0.00353000010364,1.0,0.0,0.0,0.0,1.0,0.0,0.0,0.0,1.0,0.243902444839,2.31707310677,-0.731707334518,1.0,0.0,0.0,0.0,1.0,0.0,0.0,0.0,1.0,2.12126281703,-0.972045874023,9.89762966309,1.0,0.0,0.0,0.0,1.0,0.0,0.0,0.0,1.0
1489584087616574964,151,1489584087613034657,,-17.1891441345,-3.18273758888,39.2661247253,0.00307200010866,1.0,0.0,0.0,0.0,1.0,0.0,0.0,0.0,1.0,0.243902444839,2.62195134163,-0.18292683363,1.0,0.0,0.0,0.0,1.0,0.0,0.0,0.0,1.0,2.13562802699,-1.02950671387,9.96466730957,1.0,0.0,0.0,0.0,1.0,0.0,0.0,0.0,1.0
1489584087639335346,152,1489584087635765507,,-17.0187187195,-3.19563436508,38.9029541016,0.00306600006297,1.0,0.0,0.0,0.0,1.0,0.0,0.0,0.0,1.0,0.0,2.56097555161,0.18292683363,1.0,0.0,0.0,0.0,1.0,0.0,0.0,0.0,1.0,1.94409174805,-0.866701000977,9.97424411621,1.0,0.0,0.0,0.0,1.0,0.0,0.0,0.0,1.0
1489584087662398019,153,1489584087658018026,,-16.8619117737,-3.22878646851,38.5937538147,0.00270400010049,1.0,0.0,0.0,0.0,1.0,0.0,0.0,0.0,1.0,-0.12195122242,2.13414645195,0.243902444839,1.0,0.0,0.0,0.0,1.0,0.0,0.0,0.0,1.0,2.05422502441,-0.804451757813,9.92636008301,1.0,0.0,0.0,0.0,1.0,0.0,0.0,0.0,1.0
1489584087687249700,154,1489584087678798254,,-16.7197952271,-3.26359009743,38.3142471313,0.00276000006124,1.0,0.0,0.0,0.0,1.0,0.0,0.0,0.0,1.0,0.0,1.64634156227,0.670731723309,1.0,0.0,0.0,0.0,1.0,0.0,0.0,0.0,1.0,2.12126281703,-1.01514150391,9.89284125977,1.0,0.0,0.0,0.0,1.0,0.0,0.0,0.0,1.0
1489584087707057117,155,1489584087700676971,,-16.5915126801,-3.29776859283,38.0413856506,0.0030469999183,1.0,0.0,0.0,0.0,1.0,0.0,0.0,0.0,1.0,0.0,0.487804889679,1.46341466904,1.0,0.0,0.0,0.0,1.0,0.0,0.0,0.0,1.0,2.09253210485,-0.861912597656,9.97903251953,1.0,0.0,0.0,0.0,1.0,0.0,0.0,0.0,1.0
1489584087732484422,156,1489584087728989428,,-16.4615325928,-3.3413772583,37.7184715271,0.00678300019354,1.0,0.0,0.0,0.0,1.0,0.0,0.0,0.0,1.0,0.243902444839,0.18292683363,0.975609779358,1.0,0.0,0.0,0.0,1.0,0.0,0.0,0.0,1.0,1.96803376465,-0.986411083984,9.84016882324,1.0,0.0,0.0,0.0,1.0,0.0,0.0,0.0,1.0
1489584087755550429,157,1489584087749719396,,-16.3510246277,-3.37273263931,37.5070610046,0.00311799999326,1.0,0.0,0.0,0.0,1.0,0.0,0.0,0.0,1.0,0.18292683363,0.487804889679,1.15853655338,1.0,0.0,0.0,0.0,1.0,0.0,0.0,0.0,1.0,2.00155258789,-0.9193734375,9.94551369629,1.0,0.0,0.0,0.0,1.0,0.0,0.0,0.0,1.0
1489584087774701077,158,1489584087771875821,,-16.2530765533,-3.40266132355,37.2339248657,0.00298899994232,1.0,0.0,0.0,0.0,1.0,0.0,0.0,0.0,1.0,0.243902444839,0.792682945728,-0.0609756112099,1.0,0.0,0.0,0.0,1.0,0.0,0.0,0.0,1.0,2.14041643031,-1.01992990723,9.80186159668,1.0,0.0,0.0,0.0,1.0,0.0,0.0,0.0,1.0
1489584087794547244,159,1489584087792819539,,-16.1537723541,-3.43847179413,36.9712600708,0.00263300002553,1.0,0.0,0.0,0.0,1.0,0.0,0.0,0.0,1.0,0.365853667259,1.46341466904,-0.426829278469,1.0,0.0,0.0,0.0,1.0,0.0,0.0,0.0,1.0,2.16435844691,-0.92416184082,9.96466730957,1.0,0.0,0.0,0.0,1.0,0.0,0.0,0.0,1.0
1489584087816873929,160,1489584087813556538,,-16.0537662506,-3.45501923561,36.6877212524,0.00261400011368,1.0,0.0,0.0,0.0,1.0,0.0,0.0,0.0,1.0,0.365853667259,1.46341466904,-0.609756112099,1.0,0.0,0.0,0.0,1.0,0.0,0.0,0.0,1.0,2.15478164027,-0.991199487305,9.98382092285,1.0,0.0,0.0,0.0,1.0,0.0,0.0,0.0,1.0
1489584087842575973,161,1489584087836388483,,-15.9251794815,-3.46541571617,36.4032669067,0.00287800002843,1.0,0.0,0.0,0.0,1.0,0.0,0.0,0.0,1.0,0.0,1.8292683363,-1.03658533096,1.0,0.0,0.0,0.0,1.0,0.0,0.0,0.0,1.0,2.11647412145,-0.92416184082,10.060435376,1.0,0.0,0.0,0.0,1.0,0.0,0.0,0.0,1.0
1489584087864800419,162,1489584087858819594,,-15.7997350693,-3.47455859184,36.1421813965,0.00333700003102,1.0,0.0,0.0,0.0,1.0,0.0,0.0,0.0,1.0,-0.18292683363,2.74390244484,-1.03658533096,1.0,0.0,0.0,0.0,1.0,0.0,0.0,0.0,1.0,2.25533796387,-0.857124194336,9.91199487305,1.0,0.0,0.0,0.0,1.0,0.0,0.0,0.0,1.0
1489584087885819657,163,1489584087880448832,,-15.6650161743,-3.49641537666,35.8462753296,0.00308599998243,1.0,0.0,0.0,0.0,1.0,0.0,0.0,0.0,1.0,-0.12195122242,2.62195134163,-0.853658556938,1.0,0.0,0.0,0.0,1.0,0.0,0.0,0.0,1.0,2.17393510742,-0.852335791016,10.0652237793,1.0,0.0,0.0,0.0,1.0,0.0,0.0,0.0,1.0
1489584087904325358,164,1489584087901344113,,-15.5379772186,-3.51645350456,35.5689086914,0.00270600011572,1.0,0.0,0.0,0.0,1.0,0.0,0.0,0.0,1.0,0.12195122242,3.17073178291,-1.40243899822,1.0,0.0,0.0,0.0,1.0,0.0,0.0,0.0,1.0,2.16435844691,-1.02950671387,9.97424411621,1.0,0.0,0.0,0.0,1.0,0.0,0.0,0.0,1.0
1489584087925623555,165,1489584087922892778,,-15.401509285,-3.53033614159,35.3064880371,0.00297300005332,1.0,0.0,0.0,0.0,1.0,0.0,0.0,0.0,1.0,0.731707334518,3.10975623131,-0.670731723309,1.0,0.0,0.0,0.0,1.0,0.0,0.0,0.0,1.0,1.97282216797,-1.01514150391,9.79707319336,1.0,0.0,0.0,0.0,1.0,0.0,0.0,0.0,1.0
1489584087947264564,166,1489584087944653682,,-15.2717189789,-3.55431675911,35.1138534546,0.00270200008526,1.0,0.0,0.0,0.0,1.0,0.0,0.0,0.0,1.0,0.12195122242,2.25609779358,-0.304878056049,1.0,0.0,0.0,0.0,1.0,0.0,0.0,0.0,1.0,2.18351191406,-0.962469067383,10.1992990723,1.0,0.0,0.0,0.0,1.0,0.0,0.0,0.0,1.0
1489584087967943126,167,1489584087965493025,,-15.15558815,-3.57392239571,34.8848342896,0.00273699988611,1.0,0.0,0.0,0.0,1.0,0.0,0.0,0.0,1.0,0.0609756112099,2.43902444839,-0.18292683363,1.0,0.0,0.0,0.0,1.0,0.0,0.0,0.0,1.0,2.32237546422,-0.790086547852,9.84016882324,1.0,0.0,0.0,0.0,1.0,0.0,0.0,0.0,1.0
1489584087989365020,168,1489584087986830076,,-15.0339355469,-3.59961676598,34.6535339355,0.00359399989247,1.0,0.0,0.0,0.0,1.0,0.0,0.0,0.0,1.0,-0.18292683363,3.59756112099,-0.853658556938,1.0,0.0,0.0,0.0,1.0,0.0,0.0,0.0,1.0,2.23139594727,-1.03429511719,9.95987890625,1.0,0.0,0.0,0.0,1.0,0.0,0.0,0.0,1.0
1489584088009748322,169,1489584088007308170,,-14.9077043533,-3.62885475159,34.4622840881,0.00304499990307,1.0,0.0,0.0,0.0,1.0,0.0,0.0,0.0,1.0,0.304878056049,3.7804877758,-0.487804889679,1.0,0.0,0.0,0.0,1.0,0.0,0.0,0.0,1.0,2.2170307373,-1.01514150391,9.91678327637,1.0,0.0,0.0,0.0,1.0,0.0,0.0,0.0,1.0
1489584088033964900,170,1489584088031499018,,-14.7690572739,-3.66585707664,34.2221031189,0.00594099983573,1.0,0.0,0.0,0.0,1.0,0.0,0.0,0.0,1.0,0.548780500889,2.25609779358,0.0,1.0,0.0,0.0,0.0,1.0,0.0,0.0,0.0,1.0,1.98239897461,-1.06781401349,9.91199487305,1.0,0.0,0.0,0.0,1.0,0.0,0.0,0.0,1.0
1489584088055645700,171,1489584088053363100,,-14.6517572403,-3.68837714195,34.0140113831,0.00326599995606,1.0,0.0,0.0,0.0,1.0,0.0,0.0,0.0,1.0,-0.304878056049,2.01219511032,0.365853667259,1.0,0.0,0.0,0.0,1.0,0.0,0.0,0.0,1.0,1.89141931152,-0.948103857422,10.0029745361,1.0,0.0,0.0,0.0,1.0,0.0,0.0,0.0,1.0
1489584088082168472,172,1489584088076535043,,-14.5402011871,-3.72854089737,33.7478790283,0.00309900008142,1.0,0.0,0.0,0.0,1.0,0.0,0.0,0.0,1.0,-0.670731723309,1.8902438879,0.365853667259,1.0,0.0,0.0,0.0,1.0,0.0,0.0,0.0,1.0,2.03507141113,-0.943315454102,10.1083194092,1.0,0.0,0.0,0.0,1.0,0.0,0.0,0.0,1.0
1489584088101962973,173,1489584088096424961,,-14.4485588074,-3.78208231926,33.5623016357,0.00377000006847,1.0,0.0,0.0,0.0,1.0,0.0,0.0,0.0,1.0,-0.731707334518,1.70731711388,0.18292683363,1.0,0.0,0.0,0.0,1.0,0.0,0.0,0.0,1.0,2.1930887207,-1.07260241682,9.91199487305,1.0,0.0,0.0,0.0,1.0,0.0,0.0,0.0,1.0
1489584088126424811,174,1489584088118507948,,-14.3577861786,-3.83862757683,33.3645324707,0.00293700001203,1.0,0.0,0.0,0.0,1.0,0.0,0.0,0.0,1.0,-0.487804889679,2.5,-0.12195122242,1.0,0.0,0.0,0.0,1.0,0.0,0.0,0.0,1.0,2.30322199707,-1.09654436035,9.79228479004,1.0,0.0,0.0,0.0,1.0,0.0,0.0,0.0,1.0
1489584088146064990,175,1489584088141256872,,-14.2639465332,-3.89050793648,33.1791381836,0.00526000000536,1.0,0.0,0.0,0.0,1.0,0.0,0.0,0.0,1.0,-1.15853655338,2.43902444839,0.0609756112099,1.0,0.0,0.0,0.0,1.0,0.0,0.0,0.0,1.0,2.26491477051,-1.05823706072,10.1226846191,1.0,0.0,0.0,0.0,1.0,0.0,0.0,0.0,1.0
1489584088166206990,176,1489584088161897830,,-14.1649627686,-3.94610834122,32.948589325,0.00398200005293,1.0,0.0,0.0,0.0,1.0,0.0,0.0,0.0,1.0,-2.13414645195,2.56097555161,-0.914634168148,1.0,0.0,0.0,0.0,1.0,0.0,0.0,0.0,1.0,2.10210891149,-0.981622680664,10.0317049561,1.0,0.0,0.0,0.0,1.0,0.0,0.0,0.0,1.0
1489584088187996019,177,1489584088185878418,,-14.0565595627,-4.01288366318,32.7067756653,0.00254400004633,1.0,0.0,0.0,0.0,1.0,0.0,0.0,0.0,1.0,-1.64634156227,3.35365867615,-1.2804877758,1.0,0.0,0.0,0.0,1.0,0.0,0.0,0.0,1.0,2.05901342773,-0.967257470703,9.73003554687,1.0,0.0,0.0,0.0,1.0,0.0,0.0,0.0,1.0
1489584088208501665,178,1489584088205506357,,-13.9398355484,-4.07372045517,32.5265159607,0.00264300010167,1.0,0.0,0.0,0.0,1.0,0.0,0.0,0.0,1.0,-0.792682945728,2.80487799644,-0.548780500889,1.0,0.0,0.0,0.0,1.0,0.0,0.0,0.0,1.0,2.07816689489,-0.943315454102,9.87368764648,1.0,0.0,0.0,0.0,1.0,0.0,0.0,0.0,1.0
1489584088232785691,179,1489584088230659235,,-13.8355550766,-4.10687875748,32.3007202148,0.00401900010183,1.0,0.0,0.0,0.0,1.0,0.0,0.0,0.0,1.0,0.792682945728,1.95121955872,0.0609756112099,1.0,0.0,0.0,0.0,1.0,0.0,0.0,0.0,1.0,2.12605122035,-0.991199487305,9.95987890625,1.0,0.0,0.0,0.0,1.0,0.0,0.0,0.0,1.0
1489584088252716441,180,1489584088249889050,,-13.745347023,-4.09735631943,32.1101799011,0.00259199994616,1.0,0.0,0.0,0.0,1.0,0.0,0.0,0.0,1.0,1.40243899822,2.68292689323,-0.0609756112099,1.0,0.0,0.0,0.0,1.0,0.0,0.0,0.0,1.0,2.10210891149,-0.881066210937,9.97903251953,1.0,0.0,0.0,0.0,1.0,0.0,0.0,0.0,1.0
1489584088282486656,181,1489584088273367399,,-13.6169099808,-4.06106090546,31.9545211792,0.00657400023192,1.0,0.0,0.0,0.0,1.0,0.0,0.0,0.0,1.0,2.07317066193,3.65853667259,0.365853667259,1.0,0.0,0.0,0.0,1.0,0.0,0.0,0.0,1.0,1.98718737793,-0.809240161133,10.0412817627,1.0,0.0,0.0,0.0,1.0,0.0,0.0,0.0,1.0
1489584088298108403,182,1489584088295402314,,-13.4945363998,-4.02821588516,31.7835235596,0.00250599998981,1.0,0.0,0.0,0.0,1.0,0.0,0.0,0.0,1.0,1.64634156227,3.65853667259,0.0,1.0,0.0,0.0,0.0,1.0,0.0,0.0,0.0,1.0,1.93451494141,-0.837970581055,9.84016882324,1.0,0.0,0.0,0.0,1.0,0.0,0.0,0.0,1.0
1489584088326874037,183,1489584088317523530,,-13.3772630692,-4.00716924667,31.6018466949,0.00244299997576,1.0,0.0,0.0,0.0,1.0,0.0,0.0,0.0,1.0,1.70731711388,3.7804877758,-1.09756100178,1.0,0.0,0.0,0.0,1.0,0.0,0.0,0.0,1.0,2.11647412145,-0.900219824219,9.92157167969,1.0,0.0,0.0,0.0,1.0,0.0,0.0,0.0,1.0
1489584088346467444,184,1489584088339227768,,-13.2655029297,-3.99135971069,31.4079990387,0.00399000011384,1.0,0.0,0.0,0.0,1.0,0.0,0.0,0.0,1.0,1.34146344662,3.71951246262,-1.58536589146,1.0,0.0,0.0,0.0,1.0,0.0,0.0,0.0,1.0,2.03985981445,-0.948103857422,9.87368764648,1.0,0.0,0.0,0.0,1.0,0.0,0.0,0.0,1.0
1489584088367454235,185,1489584088363551741,,-13.1384086609,-3.97925519943,31.2198696136,0.00342700001784,1.0,0.0,0.0,0.0,1.0,0.0,0.0,0.0,1.0,1.09756100178,3.7804877758,-1.95121955872,1.0,0.0,0.0,0.0,1.0,0.0,0.0,0.0,1.0,2.03028300781,-0.928950244141,10.0843773926,1.0,0.0,0.0,0.0,1.0,0.0,0.0,0.0,1.0
1489584088389065765,186,1489584088385698061,,-13.0253696442,-3.97812008858,31.0218811035,0.00279999990016,1.0,0.0,0.0,0.0,1.0,0.0,0.0,0.0,1.0,0.670731723309,3.17073178291,-1.46341466904,1.0,0.0,0.0,0.0,1.0,0.0,0.0,0.0,1.0,2.08295529821,-0.895431420898,9.94072529297,1.0,0.0,0.0,0.0,1.0,0.0,0.0,0.0,1.0
1489584088411065939,187,1489584088407722090,,-12.9291973114,-3.98426508904,30.8356151581,0.00330300000496,1.0,0.0,0.0,0.0,1.0,0.0,0.0,0.0,1.0,0.548780500889,2.43902444839,-1.15853655338,1.0,0.0,0.0,0.0,1.0,0.0,0.0,0.0,1.0,2.08295529821,-0.881066210937,9.95987890625,1.0,0.0,0.0,0.0,1.0,0.0,0.0,0.0,1.0
1489584088434980174,188,1489584088432041324,,-12.8487825394,-4.00550603867,30.6338672638,0.00648400001228,1.0,0.0,0.0,0.0,1.0,0.0,0.0,0.0,1.0,0.609756112099,1.8902438879,-0.853658556938,1.0,0.0,0.0,0.0,1.0,0.0,0.0,0.0,1.0,2.05901342773,-1.04387185076,9.89762966309,1.0,0.0,0.0,0.0,1.0,0.0,0.0,0.0,1.0
1489584088454854154,189,1489584088452322543,,-12.7860383987,-4.0204873085,30.4845733643,0.00334800011478,1.0,0.0,0.0,0.0,1.0,0.0,0.0,0.0,1.0,0.548780500889,1.8292683363,-0.243902444839,1.0,0.0,0.0,0.0,1.0,0.0,0.0,0.0,1.0,2.08774370153,-0.92416184082,9.85932243652,1.0,0.0,0.0,0.0,1.0,0.0,0.0,0.0,1.0
1489584088476870422,190,1489584088472906991,,-12.7462329865,-4.03743553162,30.3676643372,0.00304899993353,1.0,0.0,0.0,0.0,1.0,0.0,0.0,0.0,1.0,0.18292683363,0.792682945728,0.365853667259,1.0,0.0,0.0,0.0,1.0,0.0,0.0,0.0,1.0,2.03507141113,-0.809240161133,10.0317049561,1.0,0.0,0.0,0.0,1.0,0.0,0.0,0.0,1.0
1489584088498876483,191,1489584088495633988,,-12.7022504807,-4.05876350403,30.2163162231,0.00376099999994,1.0,0.0,0.0,0.0,1.0,0.0,0.0,0.0,1.0,-0.426829278469,0.975609779358,1.03658533096,1.0,0.0,0.0,0.0,1.0,0.0,0.0,0.0,1.0,2.02549460449,-0.699106884766,9.99339772949,1.0,0.0,0.0,0.0,1.0,0.0,0.0,0.0,1.0
1489584088527379512,192,1489584088519908221,,-12.6504812241,-4.07945585251,30.1105747223,0.00411699991673,1.0,0.0,0.0,0.0,1.0,0.0,0.0,0.0,1.0,-0.304878056049,1.95121955872,1.15853655338,1.0,0.0,0.0,0.0,1.0,0.0,0.0,0.0,1.0,2.23618435059,-0.814028564453,9.88805285645,1.0,0.0,0.0,0.0,1.0,0.0,0.0,0.0,1.0
1489584088545972504,193,1489584088540722877,,-12.5986442566,-4.09634590149,30.0060768127,0.00314599997364,1.0,0.0,0.0,0.0,1.0,0.0,0.0,0.0,1.0,0.0609756112099,1.46341466904,1.34146344662,1.0,0.0,0.0,0.0,1.0,0.0,0.0,0.0,1.0,2.15957004359,-0.809240161133,10.0269165527,1.0,0.0,0.0,0.0,1.0,0.0,0.0,0.0,1.0
1489584088568278460,194,1489584088564260289,,-12.5299520493,-4.10201692581,29.9169692993,0.00322599988431,1.0,0.0,0.0,0.0,1.0,0.0,0.0,0.0,1.0,0.548780500889,2.19512200356,1.64634156227,1.0,0.0,0.0,0.0,1.0,0.0,0.0,0.0,1.0,2.01112939453,-0.837970581055,9.88805285645,1.0,0.0,0.0,0.0,1.0,0.0,0.0,0.0,1.0
1489584088587970097,195,1489584088584507967,,-12.458281517,-4.1100320816,29.8235301971,0.00304000009783,1.0,0.0,0.0,0.0,1.0,0.0,0.0,0.0,1.0,0.18292683363,1.64634156227,1.46341466904,1.0,0.0,0.0,0.0,1.0,0.0,0.0,0.0,1.0,1.91536132812,-0.794874951172,9.96945571289,1.0,0.0,0.0,0.0,1.0,0.0,0.0,0.0,1.0
1489584088610710739,196,1489584088607846733,,-12.3935585022,-4.1403927803,29.7160453796,0.00386600010097,1.0,0.0,0.0,0.0,1.0,0.0,0.0,0.0,1.0,-0.487804889679,2.31707310677,0.792682945728,1.0,0.0,0.0,0.0,1.0,0.0,0.0,0.0,1.0,2.04943662109,-0.905008227539,9.95030209961,1.0,0.0,0.0,0.0,1.0,0.0,0.0,0.0,1.0
1489584088636670804,197,1489584088633707735,,-12.3120985031,-4.16769790649,29.6185016632,0.00764399999753,1.0,0.0,0.0,0.0,1.0,0.0,0.0,0.0,1.0,0.426829278469,2.56097555161,0.304878056049,1.0,0.0,0.0,0.0,1.0,0.0,0.0,0.0,1.0,2.02549460449,-0.91458503418,9.92157167969,1.0,0.0,0.0,0.0,1.0,0.0,0.0,0.0,1.0
1489584088661382381,198,1489584088659644987,,-12.2414283752,-4.19852781296,29.482629776,0.00359499990009,1.0,0.0,0.0,0.0,1.0,0.0,0.0,0.0,1.0,0.18292683363,2.5,-0.731707334518,1.0,0.0,0.0,0.0,1.0,0.0,0.0,0.0,1.0,2.03507141113,-0.804451757813,9.96945571289,1.0,0.0,0.0,0.0,1.0,0.0,0.0,0.0,1.0
1489584088682587609,199,1489584088677869855,,-12.181769371,-4.21963977814,29.3412876129,0.00260000000708,1.0,0.0,0.0,0.0,1.0,0.0,0.0,0.0,1.0,-0.12195122242,2.19512200356,-0.914634168148,1.0,0.0,0.0,0.0,1.0,0.0,0.0,0.0,1.0,2.09732050817,-0.995987890625,9.8784760498,1.0,0.0,0.0,0.0,1.0,0.0,0.0,0.0,1.0
1489584088706057417,200,1489584088700926591,,-12.1250219345,-4.23911237717,29.1974086761,0.00265499996021,1.0,0.0,0.0,0.0,1.0,0.0,0.0,0.0,1.0,-0.731707334518,1.52439022064,-0.304878056049,1.0,0.0,0.0,0.0,1.0,0.0,0.0,0.0,1.0,2.14041643031,-0.814028564453,10.0939541992,1.0,0.0,0.0,0.0,1.0,0.0,0.0,0.0,1.0
1489584088729006027,201,1489584088722206663,,-12.0784158707,-4.27798700333,29.1055259705,0.00276799988933,1.0,0.0,0.0,0.0,1.0,0.0,0.0,0.0,1.0,-0.548780500889,2.01219511032,-0.18292683363,1.0,0.0,0.0,0.0,1.0,0.0,0.0,0.0,1.0,2.02070620117,-1.0534486574,9.89762966309,1.0,0.0,0.0,0.0,1.0,0.0,0.0,0.0,1.0
1489584088747455426,202,1489584088744210483,,-12.0377464294,-4.31975317001,28.982667923,0.00269300001673,1.0,0.0,0.0,0.0,1.0,0.0,0.0,0.0,1.0,-0.548780500889,1.76829278469,-0.426829278469,1.0,0.0,0.0,0.0,1.0,0.0,0.0,0.0,1.0,2.17872351074,-0.92416184082,9.91199487305,1.0,0.0,0.0,0.0,1.0,0.0,0.0,0.0,1.0
1489584088768767581,203,1489584088766712324,,-11.9945287704,-4.35446166992,28.8538150787,0.00292799994349,1.0,0.0,0.0,0.0,1.0,0.0,0.0,0.0,1.0,-0.548780500889,2.68292689323,-0.426829278469,1.0,0.0,0.0,0.0,1.0,0.0,0.0,0.0,1.0,2.30322199707,-0.900219824219,9.90720646973,1.0,0.0,0.0,0.0,1.0,0.0,0.0,0.0,1.0
1489584088790306038,204,1489584088787214637,,-11.942155838,-4.38080024719,28.7755298615,0.00323499995284,1.0,0.0,0.0,0.0,1.0,0.0,0.0,0.0,1.0,-0.243902444839,3.41463422775,-0.792682945728,1.0,0.0,0.0,0.0,1.0,0.0,0.0,0.0,1.0,2.18830031738,-1.02950671387,9.99818613281,1.0,0.0,0.0,0.0,1.0,0.0,0.0,0.0,1.0
1489584088810752830,205,1489584088808659031,,-11.8747014999,-4.40352535248,28.6573257446,0.00395599985495,1.0,0.0,0.0,0.0,1.0,0.0,0.0,0.0,1.0,0.0,3.35365867615,-0.731707334518,1.0,0.0,0.0,0.0,1.0,0.0,0.0,0.0,1.0,2.13562802699,-1.11090957031,10.0029745361,1.0,0.0,0.0,0.0,1.0,0.0,0.0,0.0,1.0
1489584088834039305,206,1489584088831442329,,-11.7926712036,-4.41115379333,28.5567340851,0.00912899989635,1.0,0.0,0.0,0.0,1.0,0.0,0.0,0.0,1.0,0.304878056049,3.47560977936,-0.426829278469,1.0,0.0,0.0,0.0,1.0,0.0,0.0,0.0,1.0,2.04943662109,-0.92416184082,9.95509050293,1.0,0.0,0.0,0.0,1.0,0.0,0.0,0.0,1.0
1489584088855327553,207,1489584088852036361,,-11.71489048,-4.41964769363,28.4493942261,0.00304000009783,1.0,0.0,0.0,0.0,1.0,0.0,0.0,0.0,1.0,-0.0609756112099,3.17073178291,-0.304878056049,1.0,0.0,0.0,0.0,1.0,0.0,0.0,0.0,1.0,2.09732050817,-0.871489404297,10.0317049561,1.0,0.0,0.0,0.0,1.0,0.0,0.0,0.0,1.0
1489584088877847780,208,1489584088874349295,,-11.635679245,-4.43761014938,28.3546867371,0.00275300000794,1.0,0.0,0.0,0.0,1.0,0.0,0.0,0.0,1.0,-0.243902444839,3.47560977936,-0.914634168148,1.0,0.0,0.0,0.0,1.0,0.0,0.0,0.0,1.0,2.01112939453,-1.01035310059,9.79707319336,1.0,0.0,0.0,0.0,1.0,0.0,0.0,0.0,1.0
1489584088900521130,209,1489584088897004209,,-11.5638408661,-4.45846223831,28.2698669434,0.00269400002435,1.0,0.0,0.0,0.0,1.0,0.0,0.0,0.0,1.0,0.243902444839,2.92682933807,-1.40243899822,1.0,0.0,0.0,0.0,1.0,0.0,0.0,0.0,1.0,1.98718737793,-0.900219824219,9.97424411621,1.0,0.0,0.0,0.0,1.0,0.0,0.0,0.0,1.0
1489584088922945419,210,1489584088919231935,,-11.4970684052,-4.46233463287,28.1462306976,0.00341799994931,1.0,0.0,0.0,0.0,1.0,0.0,0.0,0.0,1.0,0.18292683363,2.31707310677,-0.853658556938,1.0,0.0,0.0,0.0,1.0,0.0,0.0,0.0,1.0,2.03507141113,-0.794874951172,9.95030209961,1.0,0.0,0.0,0.0,1.0,0.0,0.0,0.0,1.0
1489584088946880018,211,1489584088941573359,,-11.4468774796,-4.46784448624,28.0371704102,0.00382600002922,1.0,0.0,0.0,0.0,1.0,0.0,0.0,0.0,1.0,0.0609756112099,2.13414645195,-0.670731723309,1.0,0.0,0.0,0.0,1.0,0.0,0.0,0.0,1.0,2.09732050817,-0.794874951172,10.0412817627,1.0,0.0,0.0,0.0,1.0,0.0,0.0,0.0,1.0
1489584088966183426,212,1489584088962018224,,-11.4021224976,-4.4718747139,27.9306793213,0.00370400003158,1.0,0.0,0.0,0.0,1.0,0.0,0.0,0.0,1.0,-0.0609756112099,2.68292689323,-0.670731723309,1.0,0.0,0.0,0.0,1.0,0.0,0.0,0.0,1.0,2.17872351074,-0.905008227539,9.96466730957,1.0,0.0,0.0,0.0,1.0,0.0,0.0,0.0,1.0
1489584088987336883,213,1489584088983626472,,-11.3586997986,-4.48514699936,27.8661994934,0.00301899993792,1.0,0.0,0.0,0.0,1.0,0.0,0.0,0.0,1.0,-0.0609756112099,2.5,-0.792682945728,1.0,0.0,0.0,0.0,1.0,0.0,0.0,0.0,1.0,2.07816689489,-0.981622680664,9.89762966309,1.0,0.0,0.0,0.0,1.0,0.0,0.0,0.0,1.0
1489584089008908986,214,1489584089004980711,,-11.3177213669,-4.5040268898,27.7631816864,0.00325999991037,1.0,0.0,0.0,0.0,1.0,0.0,0.0,0.0,1.0,0.426829278469,1.95121955872,-0.304878056049,1.0,0.0,0.0,0.0,1.0,0.0,0.0,0.0,1.0,2.17872351074,-0.885854614258,9.88326445312,1.0,0.0,0.0,0.0,1.0,0.0,0.0,0.0,1.0
1489584089032433950,215,1489584089027975728,,-11.2755413055,-4.50932121277,27.6827831268,0.00318600004539,1.0,0.0,0.0,0.0,1.0,0.0,0.0,0.0,1.0,0.18292683363,1.76829278469,0.0,1.0,0.0,0.0,0.0,1.0,0.0,0.0,0.0,1.0,2.11168571813,-0.794874951172,10.1466266357,1.0,0.0,0.0,0.0,1.0,0.0,0.0,0.0,1.0
1489584089052374128,216,1489584089049470174,,-11.2314090729,-4.52493429184,27.6520957947,0.00358100002632,1.0,0.0,0.0,0.0,1.0,0.0,0.0,0.0,1.0,-0.243902444839,2.56097555161,-0.548780500889,1.0,0.0,0.0,0.0,1.0,0.0,0.0,0.0,1.0,2.03028300781,-0.91458503418,9.90720646973,1.0,0.0,0.0,0.0,1.0,0.0,0.0,0.0,1.0
1489584089075463728,217,1489584089071735036,,-11.1772003174,-4.54032421112,27.5593700409,0.00321800005622,1.0,0.0,0.0,0.0,1.0,0.0,0.0,0.0,1.0,-0.426829278469,2.68292689323,-0.487804889679,1.0,0.0,0.0,0.0,1.0,0.0,0.0,0.0,1.0,2.06859023437,-0.890643017578,9.96945571289,1.0,0.0,0.0,0.0,1.0,0.0,0.0,0.0,1.0
1489584089095987655,218,1489584089092750420,,-11.1293468475,-4.56136751175,27.4816436768,0.00337999989279,1.0,0.0,0.0,0.0,1.0,0.0,0.0,0.0,1.0,-0.12195122242,2.37804889679,-0.792682945728,1.0,0.0,0.0,0.0,1.0,0.0,0.0,0.0,1.0,2.01112939453,-0.871489404297,10.0412817627,1.0,0.0,0.0,0.0,1.0,0.0,0.0,0.0,1.0
1489584089121443241,219,1489584089116678144,,-11.091884613,-4.58927059174,27.3988189697,0.00332899997011,1.0,0.0,0.0,0.0,1.0,0.0,0.0,0.0,1.0,-0.609756112099,1.64634156227,-0.365853667259,1.0,0.0,0.0,0.0,1.0,0.0,0.0,0.0,1.0,2.07337849156,-0.895431420898,10.0556469727,1.0,0.0,0.0,0.0,1.0,0.0,0.0,0.0,1.0
1489584089145482267,220,1489584089140115296,,-11.0617685318,-4.60669088364,27.3908672333,0.00334800011478,1.0,0.0,0.0,0.0,1.0,0.0,0.0,0.0,1.0,-0.731707334518,2.13414645195,-0.304878056049,1.0,0.0,0.0,0.0,1.0,0.0,0.0,0.0,1.0,2.1930887207,-0.852335791016,9.99818613281,1.0,0.0,0.0,0.0,1.0,0.0,0.0,0.0,1.0
1489584089164665675,221,1489584089161956825,,-11.0186910629,-4.62178468704,27.3389644623,0.00302499998361,1.0,0.0,0.0,0.0,1.0,0.0,0.0,0.0,1.0,-0.243902444839,3.29268312454,-0.365853667259,1.0,0.0,0.0,0.0,1.0,0.0,0.0,0.0,1.0,2.18351191406,-0.861912597656,10.0269165527,1.0,0.0,0.0,0.0,1.0,0.0,0.0,0.0,1.0
1489584089187882463,222,1489584089184890801,,-10.9642515182,-4.63563346863,27.2488365173,0.0029720000457,1.0,0.0,0.0,0.0,1.0,0.0,0.0,0.0,1.0,0.304878056049,3.10975623131,-0.792682945728,1.0,0.0,0.0,0.0,1.0,0.0,0.0,0.0,1.0,2.19787712402,-0.900219824219,9.94551369629,1.0,0.0,0.0,0.0,1.0,0.0,0.0,0.0,1.0
1489584089208400452,223,1489584089206159727,,-10.9136781693,-4.64295864105,27.1696071625,0.00316899991594,1.0,0.0,0.0,0.0,1.0,0.0,0.0,0.0,1.0,0.0,2.5,-0.243902444839,1.0,0.0,0.0,0.0,1.0,0.0,0.0,0.0,1.0,2.2170307373,-0.708683691406,10.0891657959,1.0,0.0,0.0,0.0,1.0,0.0,0.0,0.0,1.0
1489584089232293749,224,1489584089230130211,,-10.8666877747,-4.64631986618,27.1110877991,0.00363900000229,1.0,0.0,0.0,0.0,1.0,0.0,0.0,0.0,1.0,-0.0609756112099,2.43902444839,0.12195122242,1.0,0.0,0.0,0.0,1.0,0.0,0.0,0.0,1.0,1.99197578125,-0.881066210937,9.87368764648,1.0,0.0,0.0,0.0,1.0,0.0,0.0,0.0,1.0
1489584089251679241,225,1489584089248837995,,-10.8143367767,-4.65552473068,27.0918140411,0.00384899997152,1.0,0.0,0.0,0.0,1.0,0.0,0.0,0.0,1.0,-0.12195122242,3.17073178291,-0.304878056049,1.0,0.0,0.0,0.0,1.0,0.0,0.0,0.0,1.0,1.96803376465,-0.943315454102,10.046070166,1.0,0.0,0.0,0.0,1.0,0.0,0.0,0.0,1.0
1489584089273137072,226,1489584089271016763,,-10.7653579712,-4.67802619934,27.0291042328,0.00378499994986,1.0,0.0,0.0,0.0,1.0,0.0,0.0,0.0,1.0,-0.12195122242,2.5,-0.243902444839,1.0,0.0,0.0,0.0,1.0,0.0,0.0,0.0,1.0,2.15478164027,-1.08217922346,9.91199487305,1.0,0.0,0.0,0.0,1.0,0.0,0.0,0.0,1.0
1489584089296937349,227,1489584089294164280,,-10.7255735397,-4.70238685608,26.9520702362,0.00297000003047,1.0,0.0,0.0,0.0,1.0,0.0,0.0,0.0,1.0,-0.12195122242,2.01219511032,-0.0609756112099,1.0,0.0,0.0,0.0,1.0,0.0,0.0,0.0,1.0,1.85311208496,-0.981622680664,9.82101520996,1.0,0.0,0.0,0.0,1.0,0.0,0.0,0.0,1.0
1489584089317206328,228,1489584089315105550,,-10.7015743256,-4.70790672302,26.9005680084,0.00301699992269,1.0,0.0,0.0,0.0,1.0,0.0,0.0,0.0,1.0,-0.426829278469,1.52439022064,-0.0609756112099,1.0,0.0,0.0,0.0,1.0,0.0,0.0,0.0,1.0,1.92972653809,-0.756567724609,9.98382092285,1.0,0.0,0.0,0.0,1.0,0.0,0.0,0.0,1.0
1489584089341031656,229,1489584089337841297,,-10.68496418,-4.72096252441,26.8424339294,0.00320199993439,1.0,0.0,0.0,0.0,1.0,0.0,0.0,0.0,1.0,-0.792682945728,1.09756100178,-0.609756112099,1.0,0.0,0.0,0.0,1.0,0.0,0.0,0.0,1.0,2.05901342773,-0.823605371094,9.97903251953,1.0,0.0,0.0,0.0,1.0,0.0,0.0,0.0,1.0
1489584089363402508,230,1489584089358732411,,-10.6782398224,-4.74181032181,26.8206539154,0.00313499988988,1.0,0.0,0.0,0.0,1.0,0.0,0.0,0.0,1.0,-0.853658556938,1.52439022064,-0.12195122242,1.0,0.0,0.0,0.0,1.0,0.0,0.0,0.0,1.0,2.22660754395,-0.852335791016,9.90241806641,1.0,0.0,0.0,0.0,1.0,0.0,0.0,0.0,1.0
1489584089383940705,231,1489584089380569825,,-10.6687412262,-4.76319360733,26.7763137817,0.00318900006823,1.0,0.0,0.0,0.0,1.0,0.0,0.0,0.0,1.0,-0.487804889679,1.70731711388,-0.18292683363,1.0,0.0,0.0,0.0,1.0,0.0,0.0,0.0,1.0,2.38462499965,-0.991199487305,9.95987890625,1.0,0.0,0.0,0.0,1.0,0.0,0.0,0.0,1.0
1489584089406294213,232,1489584089403610571,,-10.6493272781,-4.77830553055,26.7432842255,0.00359200011007,1.0,0.0,0.0,0.0,1.0,0.0,0.0,0.0,1.0,0.18292683363,2.31707310677,0.243902444839,1.0,0.0,0.0,0.0,1.0,0.0,0.0,0.0,1.0,2.08774370153,-0.900219824219,9.82101520996,1.0,0.0,0.0,0.0,1.0,0.0,0.0,0.0,1.0
1489584089432744173,233,1489584089428865689,,-10.6093969345,-4.78223705292,26.6669197083,0.00434600003064,1.0,0.0,0.0,0.0,1.0,0.0,0.0,0.0,1.0,-0.426829278469,2.43902444839,-0.548780500889,1.0,0.0,0.0,0.0,1.0,0.0,0.0,0.0,1.0,1.98718737793,-0.828393774414,10.0221281494,1.0,0.0,0.0,0.0,1.0,0.0,0.0,0.0,1.0
1489584089453906380,234,1489584089450871593,,-10.5750417709,-4.78151988983,26.6321697235,0.00382199999876,1.0,0.0,0.0,0.0,1.0,0.0,0.0,0.0,1.0,-0.304878056049,2.86585378647,-0.12195122242,1.0,0.0,0.0,0.0,1.0,0.0,0.0,0.0,1.0,2.07816689489,-0.881066210937,9.90720646973,1.0,0.0,0.0,0.0,1.0,0.0,0.0,0.0,1.0
1489584089475717909,235,1489584089472891924,,-10.5257606506,-4.79402780533,26.5655784607,0.00360499997623,1.0,0.0,0.0,0.0,1.0,0.0,0.0,0.0,1.0,-0.243902444839,3.7804877758,-0.792682945728,1.0,0.0,0.0,0.0,1.0,0.0,0.0,0.0,1.0,2.09732050817,-0.948103857422,9.94551369629,1.0,0.0,0.0,0.0,1.0,0.0,0.0,0.0,1.0
1489584089496279180,236,1489584089494007100,,-10.4666395187,-4.8010392189,26.4930286407,0.00316000008024,1.0,0.0,0.0,0.0,1.0,0.0,0.0,0.0,1.0,0.0,3.59756112099,-0.914634168148,1.0,0.0,0.0,0.0,1.0,0.0,0.0,0.0,1.0,1.90099611816,-1.08217922346,9.92636008301,1.0,0.0,0.0,0.0,1.0,0.0,0.0,0.0,1.0
1489584089517622845,237,1489584089514914568,,-10.4132194519,-4.80070781708,26.4505615234,0.00279999990016,1.0,0.0,0.0,0.0,1.0,0.0,0.0,0.0,1.0,0.243902444839,3.10975623131,-0.853658556938,1.0,0.0,0.0,0.0,1.0,0.0,0.0,0.0,1.0,1.84832368164,-0.866701000977,9.93593688965,1.0,0.0,0.0,0.0,1.0,0.0,0.0,0.0,1.0
1489584089544097284,238,1489584089537900419,,-10.3655157089,-4.79375934601,26.3777503967,0.0028619999066,1.0,0.0,0.0,0.0,1.0,0.0,0.0,0.0,1.0,-0.0609756112099,2.37804889679,-1.09756100178,1.0,0.0,0.0,0.0,1.0,0.0,0.0,0.0,1.0,1.96324536133,-0.876277807617,10.0364933594,1.0,0.0,0.0,0.0,1.0,0.0,0.0,0.0,1.0
1489584089565721574,239,1489584089558528981,,-10.33507061,-4.79310131073,26.3370418549,0.00278800004162,1.0,0.0,0.0,0.0,1.0,0.0,0.0,0.0,1.0,-0.243902444839,2.13414645195,-0.426829278469,1.0,0.0,0.0,0.0,1.0,0.0,0.0,0.0,1.0,2.08295529821,-0.9193734375,9.84495722656,1.0,0.0,0.0,0.0,1.0,0.0,0.0,0.0,1.0
1489584089585005295,240,1489584089581605716,,-10.3145885468,-4.80368709564,26.3141479492,0.00330900005065,1.0,0.0,0.0,0.0,1.0,0.0,0.0,0.0,1.0,0.0,1.8292683363,0.0609756112099,1.0,0.0,0.0,0.0,1.0,0.0,0.0,0.0,1.0,2.12126281703,-0.967257470703,9.95030209961,1.0,0.0,0.0,0.0,1.0,0.0,0.0,0.0,1.0
1489584089608276978,241,1489584089605583909,,-10.3152017593,-4.81619119644,26.311870575,0.00347999995574,1.0,0.0,0.0,0.0,1.0,0.0,0.0,0.0,1.0,-0.0609756112099,1.2195122242,0.18292683363,1.0,0.0,0.0,0.0,1.0,0.0,0.0,0.0,1.0,2.14520483363,-0.857124194336,10.046070166,1.0,0.0,0.0,0.0,1.0,0.0,0.0,0.0,1.0
1489584089633424856,242,1489584089629344394,,-10.3083667755,-4.83274269104,26.2725639343,0.00347299990244,1.0,0.0,0.0,0.0,1.0,0.0,0.0,0.0,1.0,0.12195122242,2.07317066193,0.12195122242,1.0,0.0,0.0,0.0,1.0,0.0,0.0,0.0,1.0,2.03985981445,-0.952892260742,9.79707319336,1.0,0.0,0.0,0.0,1.0,0.0,0.0,0.0,1.0
1489584089650762538,243,1489584089647984626,,-10.3063268661,-4.82865190506,26.2262763977,0.0032619999256,1.0,0.0,0.0,0.0,1.0,0.0,0.0,0.0,1.0,0.853658556938,2.01219511032,0.0609756112099,1.0,0.0,0.0,0.0,1.0,0.0,0.0,0.0,1.0,2.08774370153,-1.03429511719,9.99818613281,1.0,0.0,0.0,0.0,1.0,0.0,0.0,0.0,1.0
1489584089672118599,244,1489584089669620478,,-10.2918310165,-4.82201862335,26.2196617126,0.00429600011557,1.0,0.0,0.0,0.0,1.0,0.0,0.0,0.0,1.0,0.548780500889,1.70731711388,0.487804889679,1.0,0.0,0.0,0.0,1.0,0.0,0.0,0.0,1.0,1.94409174805,-0.962469067383,9.99818613281,1.0,0.0,0.0,0.0,1.0,0.0,0.0,0.0,1.0
1489584089693389244,245,1489584089690706852,,-10.2826786041,-4.82676744461,26.1813850403,0.00312400003895,1.0,0.0,0.0,0.0,1.0,0.0,0.0,0.0,1.0,-0.0609756112099,1.8292683363,0.0609756112099,1.0,0.0,0.0,0.0,1.0,0.0,0.0,0.0,1.0,2.10689731481,-1.03429511719,10.0221281494,1.0,0.0,0.0,0.0,1.0,0.0,0.0,0.0,1.0
1489584089729142471,246,1489584089714040775,,-10.2680644989,-4.84812450409,26.1354179382,0.00380899989977,1.0,0.0,0.0,0.0,1.0,0.0,0.0,0.0,1.0,-0.18292683363,2.31707310677,-0.548780500889,1.0,0.0,0.0,0.0,1.0,0.0,0.0,0.0,1.0,2.13562802699,-0.890643017578,10.0412817627,1.0,0.0,0.0,0.0,1.0,0.0,0.0,0.0,1.0
1489584089738425217,247,1489584089735391315,,-10.2503786087,-4.86571502686,26.0580120087,0.0039229998365,1.0,0.0,0.0,0.0,1.0,0.0,0.0,0.0,1.0,-0.487804889679,2.98780488968,-1.09756100178,1.0,0.0,0.0,0.0,1.0,0.0,0.0,0.0,1.0,1.98718737793,-0.847547387695,9.95030209961,1.0,0.0,0.0,0.0,1.0,0.0,0.0,0.0,1.0
1489584089765331686,248,1489584089756806491,,-10.2178850174,-4.87054252625,25.998216629,0.00296099996194,1.0,0.0,0.0,0.0,1.0,0.0,0.0,0.0,1.0,0.12195122242,3.29268312454,-1.52439022064,1.0,0.0,0.0,0.0,1.0,0.0,0.0,0.0,1.0,2.02070620117,-0.837970581055,10.0364933594,1.0,0.0,0.0,0.0,1.0,0.0,0.0,0.0,1.0
1489584089785930821,249,1489584089777786407,,-10.1767597198,-4.85654449463,25.9567050934,0.00275099999271,1.0,0.0,0.0,0.0,1.0,0.0,0.0,0.0,1.0,0.12195122242,3.35365867615,-0.853658556938,1.0,0.0,0.0,0.0,1.0,0.0,0.0,0.0,1.0,1.94409174805,-0.780509741211,10.046070166,1.0,0.0,0.0,0.0,1.0,0.0,0.0,0.0,1.0
1489584089804819543,250,1489584089799700175,,-10.1345043182,-4.84175682068,25.9042739868,0.00317099993117,1.0,0.0,0.0,0.0,1.0,0.0,0.0,0.0,1.0,0.0,2.86585378647,-0.609756112099,1.0,0.0,0.0,0.0,1.0,0.0,0.0,0.0,1.0,2.09253210485,-0.723048901367,9.99818613281,1.0,0.0,0.0,0.0,1.0,0.0,0.0,0.0,1.0
1489584089826927373,251,1489584089819991342,,-10.097823143,-4.83291435242,25.8818855286,0.00355100003071,1.0,0.0,0.0,0.0,1.0,0.0,0.0,0.0,1.0,0.12195122242,2.98780488968,0.304878056049,1.0,0.0,0.0,0.0,1.0,0.0,0.0,0.0,1.0,2.10689731481,-0.809240161133,9.99339772949,1.0,0.0,0.0,0.0,1.0,0.0,0.0,0.0,1.0
1489584089848262289,252,1489584089843673702,,-10.0646305084,-4.82887554169,25.8531341553,0.0032919999212,1.0,0.0,0.0,0.0,1.0,0.0,0.0,0.0,1.0,0.670731723309,2.56097555161,0.18292683363,1.0,0.0,0.0,0.0,1.0,0.0,0.0,0.0,1.0,1.98718737793,-0.818816967773,9.75397756348,1.0,0.0,0.0,0.0,1.0,0.0,0.0,0.0,1.0
1489584089868977518,253,1489584089866698511,,-10.0501508713,-4.83970689774,25.8534545898,0.00323999999091,1.0,0.0,0.0,0.0,1.0,0.0,0.0,0.0,1.0,0.12195122242,1.58536589146,0.304878056049,1.0,0.0,0.0,0.0,1.0,0.0,0.0,0.0,1.0,2.03507141113,-0.905008227539,10.0269165527,1.0,0.0,0.0,0.0,1.0,0.0,0.0,0.0,1.0
1489584089889459414,254,1489584089887799833,,-10.0469322205,-4.84687709808,25.843624115,0.00368999992497,1.0,0.0,0.0,0.0,1.0,0.0,0.0,0.0,1.0,0.0609756112099,1.64634156227,0.792682945728,1.0,0.0,0.0,0.0,1.0,0.0,0.0,0.0,1.0,2.05422502441,-1.00077629395,9.84495722656,1.0,0.0,0.0,0.0,1.0,0.0,0.0,0.0,1.0
1489584089911776671,255,1489584089909516258,,-10.056350708,-4.86005306244,25.8213024139,0.00350899994373,1.0,0.0,0.0,0.0,1.0,0.0,0.0,0.0,1.0,-0.365853667259,0.731707334518,0.548780500889,1.0,0.0,0.0,0.0,1.0,0.0,0.0,0.0,1.0,1.99197578125,-0.928950244141,9.94551369629,1.0,0.0,0.0,0.0,1.0,0.0,0.0,0.0,1.0
1489584089934370647,256,1489584089931710391,,-10.0740337372,-4.87844753265,25.8363456726,0.00572500005364,1.0,0.0,0.0,0.0,1.0,0.0,0.0,0.0,1.0,-0.365853667259,1.70731711388,0.243902444839,1.0,0.0,0.0,0.0,1.0,0.0,0.0,0.0,1.0,2.20745393066,-0.943315454102,10.046070166,1.0,0.0,0.0,0.0,1.0,0.0,0.0,0.0,1.0
1489584089954289471,257,1489584089952649525,,-10.0710964203,-4.89193630219,25.8356781006,0.00321500003338,1.0,0.0,0.0,0.0,1.0,0.0,0.0,0.0,1.0,-0.304878056049,2.07317066193,-0.12195122242,1.0,0.0,0.0,0.0,1.0,0.0,0.0,0.0,1.0,2.07816689489,-0.967257470703,9.98382092285,1.0,0.0,0.0,0.0,1.0,0.0,0.0,0.0,1.0
1489584089977588862,258,1489584089975533761,,-10.0606203079,-4.89823102951,25.7704677582,0.00271599995904,1.0,0.0,0.0,0.0,1.0,0.0,0.0,0.0,1.0,0.426829278469,2.19512200356,0.0609756112099,1.0,0.0,0.0,0.0,1.0,0.0,0.0,0.0,1.0,1.94409174805,-0.794874951172,9.95987890625,1.0,0.0,0.0,0.0,1.0,0.0,0.0,0.0,1.0
1489584090001662680,259,1489584089998648466,,-10.0439548492,-4.90681695938,25.714427948,0.00279300007969,1.0,0.0,0.0,0.0,1.0,0.0,0.0,0.0,1.0,-0.426829278469,2.19512200356,-0.670731723309,1.0,0.0,0.0,0.0,1.0,0.0,0.0,0.0,1.0,2.11168571813,-1.04387185076,9.93593688965,1.0,0.0,0.0,0.0,1.0,0.0,0.0,0.0,1.0
1489584090024978530,260,1489584090021770722,,-10.0273256302,-4.91323375702,25.691608429,0.00328500010073,1.0,0.0,0.0,0.0,1.0,0.0,0.0,0.0,1.0,-0.304878056049,2.86585378647,-0.304878056049,1.0,0.0,0.0,0.0,1.0,0.0,0.0,0.0,1.0,2.12126281703,-0.905008227539,9.96945571289,1.0,0.0,0.0,0.0,1.0,0.0,0.0,0.0,1.0
1489584090046570216,261,1489584090044235948,,-10.009552002,-4.91625595093,25.6570224762,0.00325999991037,1.0,0.0,0.0,0.0,1.0,0.0,0.0,0.0,1.0,-0.0609756112099,2.62195134163,-0.609756112099,1.0,0.0,0.0,0.0,1.0,0.0,0.0,0.0,1.0,2.05901342773,-0.857124194336,9.91678327637,1.0,0.0,0.0,0.0,1.0,0.0,0.0,0.0,1.0
1489584090070646898,262,1489584090068620546,,-9.98524665833,-4.92161178589,25.5923805237,0.00384499994107,1.0,0.0,0.0,0.0,1.0,0.0,0.0,0.0,1.0,0.0609756112099,2.92682933807,-0.487804889679,1.0,0.0,0.0,0.0,1.0,0.0,0.0,0.0,1.0,2.10210891149,-1.04387185076,9.90241806641,1.0,0.0,0.0,0.0,1.0,0.0,0.0,0.0,1.0
1489584090091787959,263,1489584090089326817,,-9.96388530731,-4.91789388657,25.5637989044,0.00374300009571,1.0,0.0,0.0,0.0,1.0,0.0,0.0,0.0,1.0,0.243902444839,2.68292689323,-0.670731723309,1.0,0.0,0.0,0.0,1.0,0.0,0.0,0.0,1.0,2.03507141113,-0.938527050781,9.81622680664,1.0,0.0,0.0,0.0,1.0,0.0,0.0,0.0,1.0
1489584090113583030,264,1489584090111530846,,-9.94015598297,-4.91226291656,25.5114631653,0.00393800018355,1.0,0.0,0.0,0.0,1.0,0.0,0.0,0.0,1.0,0.0609756112099,2.19512200356,-0.18292683363,1.0,0.0,0.0,0.0,1.0,0.0,0.0,0.0,1.0,1.97282216797,-0.890643017578,9.87368764648,1.0,0.0,0.0,0.0,1.0,0.0,0.0,0.0,1.0
1489584090136819140,265,1489584090134287478,,-9.92545509338,-4.90227556229,25.5033664703,0.00708399992436,1.0,0.0,0.0,0.0,1.0,0.0,0.0,0.0,1.0,-0.0609756112099,1.8902438879,0.426829278469,1.0,0.0,0.0,0.0,1.0,0.0,0.0,0.0,1.0,1.90578452148,-0.823605371094,9.88805285645,1.0,0.0,0.0,0.0,1.0,0.0,0.0,0.0,1.0
1489584090167379406,266,1489584090157985358,,-9.91836261749,-4.91048192978,25.4527378082,0.00319699989632,1.0,0.0,0.0,0.0,1.0,0.0,0.0,0.0,1.0,-0.18292683363,1.70731711388,-0.365853667259,1.0,0.0,0.0,0.0,1.0,0.0,0.0,0.0,1.0,2.15957004359,-0.828393774414,9.92157167969,1.0,0.0,0.0,0.0,1.0,0.0,0.0,0.0,1.0
1489584090188180937,267,1489584090178896628,,-9.91666603088,-4.91610908508,25.4523563385,0.00278099998832,1.0,0.0,0.0,0.0,1.0,0.0,0.0,0.0,1.0,0.0,1.46341466904,-0.365853667259,1.0,0.0,0.0,0.0,1.0,0.0,0.0,0.0,1.0,2.11647412145,-0.871489404297,9.96945571289,1.0,0.0,0.0,0.0,1.0,0.0,0.0,0.0,1.0
1489584090204848203,268,1489584090199819044,,-9.91838645935,-4.91296339035,25.4380836487,0.00367700005881,1.0,0.0,0.0,0.0,1.0,0.0,0.0,0.0,1.0,0.12195122242,2.01219511032,-0.12195122242,1.0,0.0,0.0,0.0,1.0,0.0,0.0,0.0,1.0,2.17393510742,-0.77093293457,9.95509050293,1.0,0.0,0.0,0.0,1.0,0.0,0.0,0.0,1.0
1489584090230988163,269,1489584090223415623,,-9.90399360657,-4.89808511734,25.3992729187,0.00319500011392,1.0,0.0,0.0,0.0,1.0,0.0,0.0,0.0,1.0,0.548780500889,2.43902444839,-0.0609756112099,1.0,0.0,0.0,0.0,1.0,0.0,0.0,0.0,1.0,2.10210891149,-0.833182177734,9.83538041992,1.0,0.0,0.0,0.0,1.0,0.0,0.0,0.0,1.0
1489584090250186103,270,1489584090246852202,,-9.88549995422,-4.89575958252,25.3735637665,0.00342700001784,1.0,0.0,0.0,0.0,1.0,0.0,0.0,0.0,1.0,-0.243902444839,2.31707310677,0.365853667259,1.0,0.0,0.0,0.0,1.0,0.0,0.0,0.0,1.0,2.12126281703,-0.804451757813,9.91678327637,1.0,0.0,0.0,0.0,1.0,0.0,0.0,0.0,1.0
1489584090273302943,271,1489584090270955915,,-9.87000179291,-4.90765380859,25.3343982697,0.00449400022626,1.0,0.0,0.0,0.0,1.0,0.0,0.0,0.0,1.0,0.18292683363,2.5,0.304878056049,1.0,0.0,0.0,0.0,1.0,0.0,0.0,0.0,1.0,2.01112939453,-0.91458503418,9.95987890625,1.0,0.0,0.0,0.0,1.0,0.0,0.0,0.0,1.0
1489584090295130930,272,1489584090292093643,,-9.84880638123,-4.92029094696,25.3118343353,0.00353699992411,1.0,0.0,0.0,0.0,1.0,0.0,0.0,0.0,1.0,0.365853667259,2.74390244484,-0.365853667259,1.0,0.0,0.0,0.0,1.0,0.0,0.0,0.0,1.0,1.90099611816,-0.962469067383,9.84495722656,1.0,0.0,0.0,0.0,1.0,0.0,0.0,0.0,1.0
1489584090317721052,273,1489584090314966108,,-9.81642246246,-4.9193816185,25.2650547028,0.00305099994875,1.0,0.0,0.0,0.0,1.0,0.0,0.0,0.0,1.0,-0.304878056049,2.74390244484,-0.731707334518,1.0,0.0,0.0,0.0,1.0,0.0,0.0,0.0,1.0,1.78128603516,-0.876277807617,9.88805285645,1.0,0.0,0.0,0.0,1.0,0.0,0.0,0.0,1.0
1489584090341714661,274,1489584090335485452,,-9.79055976868,-4.91841650009,25.2241096497,0.00300200004131,1.0,0.0,0.0,0.0,1.0,0.0,0.0,0.0,1.0,-0.0609756112099,1.8902438879,-0.487804889679,1.0,0.0,0.0,0.0,1.0,0.0,0.0,0.0,1.0,1.84353527832,-0.76614453125,9.97903251953,1.0,0.0,0.0,0.0,1.0,0.0,0.0,0.0,1.0
1489584090366229468,275,1489584090357645158,,-9.78931427002,-4.93422079086,25.1989917755,0.00318200001493,1.0,0.0,0.0,0.0,1.0,0.0,0.0,0.0,1.0,-0.487804889679,0.853658556938,-0.548780500889,1.0,0.0,0.0,0.0,1.0,0.0,0.0,0.0,1.0,1.99197578125,-0.885854614258,10.0317049561,1.0,0.0,0.0,0.0,1.0,0.0,0.0,0.0,1.0
1489584090386672249,276,1489584090379259396,,-9.81086158752,-4.94335889816,25.1868972778,0.00303700007498,1.0,0.0,0.0,0.0,1.0,0.0,0.0,0.0,1.0,-0.304878056049,0.243902444839,0.0609756112099,1.0,0.0,0.0,0.0,1.0,0.0,0.0,0.0,1.0,2.09253210485,-0.881066210937,9.89284125977,1.0,0.0,0.0,0.0,1.0,0.0,0.0,0.0,1.0
1489584090406899510,277,1489584090399447177,,-9.83762454987,-4.94975137711,25.1628417969,0.00341699994169,1.0,0.0,0.0,0.0,1.0,0.0,0.0,0.0,1.0,-0.487804889679,0.975609779358,0.548780500889,1.0,0.0,0.0,0.0,1.0,0.0,0.0,0.0,1.0,2.27449157715,-0.823605371094,9.87368764648,1.0,0.0,0.0,0.0,1.0,0.0,0.0,0.0,1.0
1489584090429141507,278,1489584090422336726,,-9.84627437592,-4.94957494736,25.1130008698,0.0039229998365,1.0,0.0,0.0,0.0,1.0,0.0,0.0,0.0,1.0,0.243902444839,1.8902438879,0.426829278469,1.0,0.0,0.0,0.0,1.0,0.0,0.0,0.0,1.0,2.13562802699,-0.895431420898,9.90720646973,1.0,0.0,0.0,0.0,1.0,0.0,0.0,0.0,1.0
1489584090446801376,279,1489584090444210546,,-9.861369133,-4.93748092651,25.1721553802,0.0028530000709,1.0,0.0,0.0,0.0,1.0,0.0,0.0,0.0,1.0,0.243902444839,2.07317066193,0.304878056049,1.0,0.0,0.0,0.0,1.0,0.0,0.0,0.0,1.0,2.1930887207,-0.828393774414,9.91199487305,1.0,0.0,0.0,0.0,1.0,0.0,0.0,0.0,1.0
1489584090470115976,280,1489584090467423584,,-9.85032367706,-4.9396033287,25.1245956421,0.00358800007962,1.0,0.0,0.0,0.0,1.0,0.0,0.0,0.0,1.0,-0.0609756112099,2.98780488968,0.304878056049,1.0,0.0,0.0,0.0,1.0,0.0,0.0,0.0,1.0,2.13562802699,-0.991199487305,9.98860932617,1.0,0.0,0.0,0.0,1.0,0.0,0.0,0.0,1.0
1489584090491212037,281,1489584090489093030,,-9.82854938507,-4.94245004654,25.109746933,0.00400799978524,1.0,0.0,0.0,0.0,1.0,0.0,0.0,0.0,1.0,0.18292683363,2.62195134163,0.670731723309,1.0,0.0,0.0,0.0,1.0,0.0,0.0,0.0,1.0,2.05422502441,-0.962469067383,9.84495722656,1.0,0.0,0.0,0.0,1.0,0.0,0.0,0.0,1.0
1489584090514196013,282,1489584090510998101,,-9.79959487915,-4.94265604019,25.0655498505,0.00334899988957,1.0,0.0,0.0,0.0,1.0,0.0,0.0,0.0,1.0,0.304878056049,2.43902444839,0.243902444839,1.0,0.0,0.0,0.0,1.0,0.0,0.0,0.0,1.0,2.01112939453,-0.995987890625,10.0508585693,1.0,0.0,0.0,0.0,1.0,0.0,0.0,0.0,1.0
1489584090537412904,283,1489584090534201295,,-9.77551174164,-4.94505262375,25.0321655273,0.00443000020459,1.0,0.0,0.0,0.0,1.0,0.0,0.0,0.0,1.0,0.426829278469,2.37804889679,0.0609756112099,1.0,0.0,0.0,0.0,1.0,0.0,0.0,0.0,1.0,1.90578452148,-0.967257470703,9.82580361328,1.0,0.0,0.0,0.0,1.0,0.0,0.0,0.0,1.0
1489584090563851301,284,1489584090555700741,,-9.75992298126,-4.94606399536,25.0096149445,0.00269200000912,1.0,0.0,0.0,0.0,1.0,0.0,0.0,0.0,1.0,0.243902444839,2.25609779358,-0.670731723309,1.0,0.0,0.0,0.0,1.0,0.0,0.0,0.0,1.0,1.89141931152,-0.780509741211,10.0077629395,1.0,0.0,0.0,0.0,1.0,0.0,0.0,0.0,1.0
1489584090578389561,285,1489584090576111960,,-9.74883842468,-4.95109224319,24.9590911865,0.00243599992245,1.0,0.0,0.0,0.0,1.0,0.0,0.0,0.0,1.0,-0.12195122242,1.64634156227,-0.731707334518,1.0,0.0,0.0,0.0,1.0,0.0,0.0,0.0,1.0,1.9105729248,-0.890643017578,10.0748005859,1.0,0.0,0.0,0.0,1.0,0.0,0.0,0.0,1.0
1489584090604724885,286,1489584090598148280,,-9.75726413727,-4.95813703537,24.918964386,0.00260900007561,1.0,0.0,0.0,0.0,1.0,0.0,0.0,0.0,1.0,-0.304878056049,0.548780500889,-0.18292683363,1.0,0.0,0.0,0.0,1.0,0.0,0.0,0.0,1.0,2.02070620117,-0.943315454102,9.99339772949,1.0,0.0,0.0,0.0,1.0,0.0,0.0,0.0,1.0
1489584090629735316,287,1489584090623956158,,-9.79194545746,-4.96037435532,24.892408371,0.00270300009288,1.0,0.0,0.0,0.0,1.0,0.0,0.0,0.0,1.0,-0.304878056049,0.0609756112099,0.487804889679,1.0,0.0,0.0,0.0,1.0,0.0,0.0,0.0,1.0,2.22181914063,-0.76614453125,10.0269165527,1.0,0.0,0.0,0.0,1.0,0.0,0.0,0.0,1.0
1489584090648747995,288,1489584090646120968,,-9.83023071289,-4.95922327042,24.9265537262,0.00479099992663,1.0,0.0,0.0,0.0,1.0,0.0,0.0,0.0,1.0,0.0,1.09756100178,0.975609779358,1.0,0.0,0.0,0.0,1.0,0.0,0.0,0.0,1.0,2.28885678711,-0.833182177734,9.84016882324,1.0,0.0,0.0,0.0,1.0,0.0,0.0,0.0,1.0
1489584090669798484,289,1489584090667199946,,-9.86425590515,-4.96216630936,24.9102573395,0.00578599981964,1.0,0.0,0.0,0.0,1.0,0.0,0.0,0.0,1.0,-0.426829278469,1.2195122242,0.975609779358,1.0,0.0,0.0,0.0,1.0,0.0,0.0,0.0,1.0,2.43729729004,-0.852335791016,10.0269165527,1.0,0.0,0.0,0.0,1.0,0.0,0.0,0.0,1.0
1489584090691996627,290,1489584090689233506,,-9.89531517029,-4.9860162735,24.8729724884,0.00419399980456,1.0,0.0,0.0,0.0,1.0,0.0,0.0,0.0,1.0,-0.487804889679,4.08536577225,-0.731707334518,1.0,0.0,0.0,0.0,1.0,0.0,0.0,0.0,1.0,2.55221896973,-1.01514150391,9.90241806641,1.0,0.0,0.0,0.0,1.0,0.0,0.0,0.0,1.0
1489584090716401277,291,1489584090713844250,,-9.84170055389,-5.00309896469,24.8552951813,0.00285899988376,1.0,0.0,0.0,0.0,1.0,0.0,0.0,0.0,1.0,-0.487804889679,8.29268264771,-2.98780488968,1.0,0.0,0.0,0.0,1.0,0.0,0.0,0.0,1.0,2.32237546422,-1.14921679688,9.84016882324,1.0,0.0,0.0,0.0,1.0,0.0,0.0,0.0,1.0
1489584090734530208,292,1489584090731931201,,-9.70388698578,-4.99687623978,24.7276916504,0.00666500022635,1.0,0.0,0.0,0.0,1.0,0.0,0.0,0.0,1.0,-0.12195122242,9.93902492523,-5.06097555161,1.0,0.0,0.0,0.0,1.0,0.0,0.0,0.0,1.0,2.12126281703,-0.976834277344,9.93593688965,1.0,0.0,0.0,0.0,1.0,0.0,0.0,0.0,1.0
1489584090757166059,293,1489584090755354499,,-9.53007984161,-4.97716188431,24.5848560333,0.00302399997599,1.0,0.0,0.0,0.0,1.0,0.0,0.0,0.0,1.0,-0.18292683363,9.39024448395,-5.0,1.0,0.0,0.0,0.0,1.0,0.0,0.0,0.0,1.0,1.78607443848,-0.895431420898,9.98860932617,1.0,0.0,0.0,0.0,1.0,0.0,0.0,0.0,1.0
1489584090776870247,294,1489584090775031084,,-9.3714017868,-4.96242046356,24.4471988678,0.00293199997395,1.0,0.0,0.0,0.0,1.0,0.0,0.0,0.0,1.0,0.0,7.37804937363,-3.90243911743,1.0,0.0,0.0,0.0,1.0,0.0,0.0,0.0,1.0,1.57538469238,-0.622492431641,9.80186159668,1.0,0.0,0.0,0.0,1.0,0.0,0.0,0.0,1.0
1489584090804184945,295,1489584090797377612,,-9.24866580963,-4.94956254959,24.3770980835,0.00259199994616,1.0,0.0,0.0,0.0,1.0,0.0,0.0,0.0,1.0,0.243902444839,5.36585378647,-2.5,1.0,0.0,0.0,0.0,1.0,0.0,0.0,0.0,1.0,1.62326872559,-0.799663354492,9.84016882324,1.0,0.0,0.0,0.0,1.0,0.0,0.0,0.0,1.0
1489584090826951681,296,1489584090817958206,,-9.18626308441,-4.93140077591,24.356338501,0.00258100009523,1.0,0.0,0.0,0.0,1.0,0.0,0.0,0.0,1.0,0.243902444839,2.19512200356,-0.548780500889,1.0,0.0,0.0,0.0,1.0,0.0,0.0,0.0,1.0,1.69509477539,-0.809240161133,9.99339772949,1.0,0.0,0.0,0.0,1.0,0.0,0.0,0.0,1.0
1489584090847050713,297,1489584090840009474,,-9.18932056427,-4.91881465912,24.3408470154,0.00276300008409,1.0,0.0,0.0,0.0,1.0,0.0,0.0,0.0,1.0,0.365853667259,0.18292683363,-0.12195122242,1.0,0.0,0.0,0.0,1.0,0.0,0.0,0.0,1.0,2.01591779785,-1.06302561017,9.92636008301,1.0,0.0,0.0,0.0,1.0,0.0,0.0,0.0,1.0
1489584090866626465,298,1489584090860890119,,-9.21481990814,-4.90021753311,24.3583202362,0.00290299998596,1.0,0.0,0.0,0.0,1.0,0.0,0.0,0.0,1.0,0.975609779358,-0.609756112099,1.46341466904,1.0,0.0,0.0,0.0,1.0,0.0,0.0,0.0,1.0,1.94409174805,-0.861912597656,10.0652237793,1.0,0.0,0.0,0.0,1.0,0.0,0.0,0.0,1.0
1489584090886586955,299,1489584090883370658,,-9.27355098724,-4.88940000534,24.4344367981,0.00254500005394,1.0,0.0,0.0,0.0,1.0,0.0,0.0,0.0,1.0,0.18292683363,-2.13414645195,2.68292689323,1.0,0.0,0.0,0.0,1.0,0.0,0.0,0.0,1.0,1.85311208496,-0.837970581055,9.90241806641,1.0,0.0,0.0,0.0,1.0,0.0,0.0,0.0,1.0
1489584090908629994,300,1489584090906376300,,-9.37535858154,-4.88604927063,24.5462379456,0.00272400001995,1.0,0.0,0.0,0.0,1.0,0.0,0.0,0.0,1.0,0.0609756112099,-3.23170733452,2.98780488968,1.0,0.0,0.0,0.0,1.0,0.0,0.0,0.0,1.0,2.05422502441,-0.742202514648,10.0029745361,1.0,0.0,0.0,0.0,1.0,0.0,0.0,0.0,1.0
1489584090933765893,301,1489584090930756054,,-9.49479484558,-4.88712310791,24.6243553162,0.00502899987623,1.0,0.0,0.0,0.0,1.0,0.0,0.0,0.0,1.0,0.243902444839,-2.5,3.10975623131,1.0,0.0,0.0,0.0,1.0,0.0,0.0,0.0,1.0,2.1691467041,-0.790086547852,10.1083194092,1.0,0.0,0.0,0.0,1.0,0.0,0.0,0.0,1.0
1489584090954853309,302,1489584090952878468,,-9.58559417725,-4.89343738556,24.6615352631,0.00294800009578,1.0,0.0,0.0,0.0,1.0,0.0,0.0,0.0,1.0,-0.18292683363,-0.792682945728,1.8902438879,1.0,0.0,0.0,0.0,1.0,0.0,0.0,0.0,1.0,2.28406838379,-0.885854614258,9.90720646973,1.0,0.0,0.0,0.0,1.0,0.0,0.0,0.0,1.0
1489584090976611766,303,1489584090974049738,,-9.63817882538,-4.90540599823,24.7108974457,0.00252599990927,1.0,0.0,0.0,0.0,1.0,0.0,0.0,0.0,1.0,-0.18292683363,1.15853655338,0.731707334518,1.0,0.0,0.0,0.0,1.0,0.0,0.0,0.0,1.0,2.15957004359,-0.928950244141,9.95030209961,1.0,0.0,0.0,0.0,1.0,0.0,0.0,0.0,1.0
1489584090999292773,304,1489584090996864495,,-9.65388298035,-4.91207790375,24.6981220245,0.0024619998876,1.0,0.0,0.0,0.0,1.0,0.0,0.0,0.0,1.0,-0.426829278469,2.19512200356,-0.487804889679,1.0,0.0,0.0,0.0,1.0,0.0,0.0,0.0,1.0,2.1691467041,-0.857124194336,10.0939541992,1.0,0.0,0.0,0.0,1.0,0.0,0.0,0.0,1.0
1489584091020552688,305,1489584091018255192,,-9.64960956573,-4.91220426559,24.6563911438,0.003187000053,1.0,0.0,0.0,0.0,1.0,0.0,0.0,0.0,1.0,-0.609756112099,3.10975623131,-0.670731723309,1.0,0.0,0.0,0.0,1.0,0.0,0.0,0.0,1.0,2.27449157715,-0.905008227539,9.97424411621,1.0,0.0,0.0,0.0,1.0,0.0,0.0,0.0,1.0
1489584091044385933,306,1489584091039285889,,-9.60642337799,-4.92110824585,24.6315193176,0.00315500004217,1.0,0.0,0.0,0.0,1.0,0.0,0.0,0.0,1.0,-0.548780500889,3.71951246262,-0.914634168148,1.0,0.0,0.0,0.0,1.0,0.0,0.0,0.0,1.0,2.14041643031,-0.823605371094,9.98382092285,1.0,0.0,0.0,0.0,1.0,0.0,0.0,0.0,1.0
1489584091067619804,307,1489584091065657984,,-9.56634616852,-4.93535232544,24.6383724213,0.00250099995174,1.0,0.0,0.0,0.0,1.0,0.0,0.0,0.0,1.0,-0.426829278469,3.29268312454,-1.2195122242,1.0,0.0,0.0,0.0,1.0,0.0,0.0,0.0,1.0,2.12605122035,-0.881066210937,9.95509050293,1.0,0.0,0.0,0.0,1.0,0.0,0.0,0.0,1.0
1489584091088096387,308,1489584091085517224,,-9.53981208801,-4.93879842758,24.6103115082,0.00450500007719,1.0,0.0,0.0,0.0,1.0,0.0,0.0,0.0,1.0,0.304878056049,3.23170733452,-0.670731723309,1.0,0.0,0.0,0.0,1.0,0.0,0.0,0.0,1.0,2.03985981445,-0.948103857422,9.86889924316,1.0,0.0,0.0,0.0,1.0,0.0,0.0,0.0,1.0
1489584091111570206,309,1489584091108964793,,-9.51380157471,-4.93442869186,24.6054954529,0.0055800001137,1.0,0.0,0.0,0.0,1.0,0.0,0.0,0.0,1.0,0.426829278469,2.13414645195,-0.243902444839,1.0,0.0,0.0,0.0,1.0,0.0,0.0,0.0,1.0,1.97761057129,-0.976834277344,9.92157167969,1.0,0.0,0.0,0.0,1.0,0.0,0.0,0.0,1.0
1489584091135657617,310,1489584091133720849,,-9.52039051056,-4.93156003952,24.6157684326,0.00785799976438,1.0,0.0,0.0,0.0,1.0,0.0,0.0,0.0,1.0,0.243902444839,1.03658533096,0.304878056049,1.0,0.0,0.0,0.0,1.0,0.0,0.0,0.0,1.0,1.88184250488,-0.852335791016,9.91199487305,1.0,0.0,0.0,0.0,1.0,0.0,0.0,0.0,1.0
1489584091158717894,311,1489584091156319616,,-9.53604602814,-4.94528388977,24.6155757904,0.00264400010929,1.0,0.0,0.0,0.0,1.0,0.0,0.0,0.0,1.0,-0.243902444839,1.09756100178,-0.0609756112099,1.0,0.0,0.0,0.0,1.0,0.0,0.0,0.0,1.0,2.04464821777,-0.76614453125,10.0364933594,1.0,0.0,0.0,0.0,1.0,0.0,0.0,0.0,1.0
1489584091181290568,312,1489584091178913384,,-9.55853462219,-4.94418001175,24.6212711334,0.00301899993792,1.0,0.0,0.0,0.0,1.0,0.0,0.0,0.0,1.0,0.0609756112099,1.09756100178,-0.18292683363,1.0,0.0,0.0,0.0,1.0,0.0,0.0,0.0,1.0,2.24097275391,-0.991199487305,9.97903251953,1.0,0.0,0.0,0.0,1.0,0.0,0.0,0.0,1.0
1489584091205384490,313,1489584091202272567,,-9.59064769745,-4.95082855225,24.5911140442,0.00338899996132,1.0,0.0,0.0,0.0,1.0,0.0,0.0,0.0,1.0,0.0,0.670731723309,0.548780500889,1.0,0.0,0.0,0.0,1.0,0.0,0.0,0.0,1.0,2.07337849156,-0.967257470703,9.7827079834,1.0,0.0,0.0,0.0,1.0,0.0,0.0,0.0,1.0
1489584091229332057,314,1489584091223968940,,-9.62685489655,-4.9522767067,24.6234092712,0.00289999996312,1.0,0.0,0.0,0.0,1.0,0.0,0.0,0.0,1.0,-0.304878056049,0.731707334518,0.609756112099,1.0,0.0,0.0,0.0,1.0,0.0,0.0,0.0,1.0,2.12605122035,-0.881066210937,9.87368764648,1.0,0.0,0.0,0.0,1.0,0.0,0.0,0.0,1.0
1489584091249981088,315,1489584091248144424,,-9.65113735199,-4.96824407578,24.6258125305,0.00451900018379,1.0,0.0,0.0,0.0,1.0,0.0,0.0,0.0,1.0,-1.03658533096,1.8902438879,0.243902444839,1.0,0.0,0.0,0.0,1.0,0.0,0.0,0.0,1.0,2.18830031738,-0.876277807617,9.98860932617,1.0,0.0,0.0,0.0,1.0,0.0,0.0,0.0,1.0
1489584091271833503,316,1489584091270004651,,-9.66376113892,-4.98283290863,24.6374912262,0.00463199988008,1.0,0.0,0.0,0.0,1.0,0.0,0.0,0.0,1.0,-0.426829278469,2.31707310677,0.0609756112099,1.0,0.0,0.0,0.0,1.0,0.0,0.0,0.0,1.0,2.12605122035,-0.952892260742,9.93593688965,1.0,0.0,0.0,0.0,1.0,0.0,0.0,0.0,1.0
1489584091292551232,317,1489584091290605974,,-9.6665019989,-5.00004243851,24.6329917908,0.00479099992663,1.0,0.0,0.0,0.0,1.0,0.0,0.0,0.0,1.0,-0.18292683363,1.76829278469,0.487804889679,1.0,0.0,0.0,0.0,1.0,0.0,0.0,0.0,1.0,2.11168571813,-0.948103857422,9.8784760498,1.0,0.0,0.0,0.0,1.0,0.0,0.0,0.0,1.0
1489584091315114583,318,1489584091313013648,,-9.67278194427,-5.00807571411,24.6262149811,0.00303200003691,1.0,0.0,0.0,0.0,1.0,0.0,0.0,0.0,1.0,-0.304878056049,1.40243899822,1.15853655338,1.0,0.0,0.0,0.0,1.0,0.0,0.0,0.0,1.0,2.03028300781,-0.809240161133,9.89284125977,1.0,0.0,0.0,0.0,1.0,0.0,0.0,0.0,1.0
1489584091336996633,319,1489584091334678667,,-9.66823673248,-5.00909757614,24.6586608887,0.00541000021622,1.0,0.0,0.0,0.0,1.0,0.0,0.0,0.0,1.0,-0.487804889679,2.31707310677,0.914634168148,1.0,0.0,0.0,0.0,1.0,0.0,0.0,0.0,1.0,1.98718737793,-0.823605371094,9.92636008301,1.0,0.0,0.0,0.0,1.0,0.0,0.0,0.0,1.0
1489584091358421860,320,1489584091356580301,,-9.66038322449,-5.02117967606,24.6590499878,0.00321600004099,1.0,0.0,0.0,0.0,1.0,0.0,0.0,0.0,1.0,-0.304878056049,2.68292689323,-0.670731723309,1.0,0.0,0.0,0.0,1.0,0.0,0.0,0.0,1.0,2.15957004359,-0.847547387695,9.90241806641,1.0,0.0,0.0,0.0,1.0,0.0,0.0,0.0,1.0
1489584091380225577,321,1489584091378115684,,-9.64580726624,-5.0234875679,24.6273574829,0.00294500007294,1.0,0.0,0.0,0.0,1.0,0.0,0.0,0.0,1.0,-0.0609756112099,3.90243911743,-1.76829278469,1.0,0.0,0.0,0.0,1.0,0.0,0.0,0.0,1.0,2.17393510742,-0.895431420898,9.92636008301,1.0,0.0,0.0,0.0,1.0,0.0,0.0,0.0,1.0
1489584091401214555,322,1489584091399417579,,-9.61154174805,-5.01245117188,24.5834121704,0.00276899989694,1.0,0.0,0.0,0.0,1.0,0.0,0.0,0.0,1.0,0.12195122242,3.7804877758,-1.64634156227,1.0,0.0,0.0,0.0,1.0,0.0,0.0,0.0,1.0,2.21224233398,-0.952892260742,9.85932243652,1.0,0.0,0.0,0.0,1.0,0.0,0.0,0.0,1.0
1489584091423295668,323,1489584091421745357,,-9.57437419891,-4.99781274796,24.5495300293,0.00343600008637,1.0,0.0,0.0,0.0,1.0,0.0,0.0,0.0,1.0,0.243902444839,3.84146332741,-1.8292683363,1.0,0.0,0.0,0.0,1.0,0.0,0.0,0.0,1.0,2.02070620117,-0.852335791016,9.93593688965,1.0,0.0,0.0,0.0,1.0,0.0,0.0,0.0,1.0
1489584091445338134,324,1489584091443557824,,-9.52663230896,-4.98745393753,24.4904079437,0.00529799982905,1.0,0.0,0.0,0.0,1.0,0.0,0.0,0.0,1.0,0.18292683363,4.39024400711,-1.70731711388,1.0,0.0,0.0,0.0,1.0,0.0,0.0,0.0,1.0,1.98239897461,-0.972045874023,9.89284125977,1.0,0.0,0.0,0.0,1.0,0.0,0.0,0.0,1.0
1489584091468483567,325,1489584091466791747,,-9.48921966553,-4.97975492477,24.4371795654,0.00402399990708,1.0,0.0,0.0,0.0,1.0,0.0,0.0,0.0,1.0,0.0609756112099,3.23170733452,-2.13414645195,1.0,0.0,0.0,0.0,1.0,0.0,0.0,0.0,1.0,2.07816689489,-0.861912597656,10.0412817627,1.0,0.0,0.0,0.0,1.0,0.0,0.0,0.0,1.0
1489584091488874838,326,1489584091487108956,,-9.46946239471,-4.9724817276,24.4405593872,0.00524700013921,1.0,0.0,0.0,0.0,1.0,0.0,0.0,0.0,1.0,0.365853667259,3.23170733452,-1.64634156227,1.0,0.0,0.0,0.0,1.0,0.0,0.0,0.0,1.0,2.17393510742,-0.852335791016,9.99818613281,1.0,0.0,0.0,0.0,1.0,0.0,0.0,0.0,1.0
1489584091511350585,327,1489584091509649755,,-9.45684337616,-4.95783567429,24.4234371185,0.0046020001173,1.0,0.0,0.0,0.0,1.0,0.0,0.0,0.0,1.0,0.670731723309,1.95121955872,-0.853658556938,1.0,0.0,0.0,0.0,1.0,0.0,0.0,0.0,1.0,2.08774370153,-0.91458503418,9.86889924316,1.0,0.0,0.0,0.0,1.0,0.0,0.0,0.0,1.0
1489584091536385339,328,1489584091534354561,,-9.46977901459,-4.95179510117,24.448392868,0.00593100022525,1.0,0.0,0.0,0.0,1.0,0.0,0.0,0.0,1.0,0.12195122242,1.03658533096,0.609756112099,1.0,0.0,0.0,0.0,1.0,0.0,0.0,0.0,1.0,1.99676418457,-0.909796630859,9.98860932617,1.0,0.0,0.0,0.0,1.0,0.0,0.0,0.0,1.0
1489584091556474683,329,1489584091554140364,,-9.48987865448,-4.95669460297,24.4543037415,0.00528699997813,1.0,0.0,0.0,0.0,1.0,0.0,0.0,0.0,1.0,-0.0609756112099,1.40243899822,1.40243899822,1.0,0.0,0.0,0.0,1.0,0.0,0.0,0.0,1.0,2.12605122035,-0.871489404297,9.98382092285,1.0,0.0,0.0,0.0,1.0,0.0,0.0,0.0,1.0
1489584091578164025,330,1489584091576224549,,-9.50605678558,-4.95373868942,24.4737606049,0.00323799997568,1.0,0.0,0.0,0.0,1.0,0.0,0.0,0.0,1.0,0.304878056049,2.25609779358,0.548780500889,1.0,0.0,0.0,0.0,1.0,0.0,0.0,0.0,1.0,2.12605122035,-0.742202514648,9.83538041992,1.0,0.0,0.0,0.0,1.0,0.0,0.0,0.0,1.0
1489584091601153313,331,1489584091598943264,,-9.51554489136,-4.93783903122,24.4967880249,0.00297100003809,1.0,0.0,0.0,0.0,1.0,0.0,0.0,0.0,1.0,0.853658556938,2.31707310677,-0.243902444839,1.0,0.0,0.0,0.0,1.0,0.0,0.0,0.0,1.0,2.1691467041,-0.938527050781,9.77791958008,1.0,0.0,0.0,0.0,1.0,0.0,0.0,0.0,1.0
1489584091621208230,332,1489584091618924900,,-9.50656414032,-4.92000341415,24.5047931671,0.00365200010128,1.0,0.0,0.0,0.0,1.0,0.0,0.0,0.0,1.0,0.731707334518,2.5,0.365853667259,1.0,0.0,0.0,0.0,1.0,0.0,0.0,0.0,1.0,2.16435844691,-0.828393774414,10.0317049561,1.0,0.0,0.0,0.0,1.0,0.0,0.0,0.0,1.0
1489584091643589550,333,1489584091641368200,,-9.49036407471,-4.89501523972,24.5151367188,0.00345700001344,1.0,0.0,0.0,0.0,1.0,0.0,0.0,0.0,1.0,0.365853667259,1.8292683363,0.609756112099,1.0,0.0,0.0,0.0,1.0,0.0,0.0,0.0,1.0,1.96324536133,-0.641646044922,10.1370498291,1.0,0.0,0.0,0.0,1.0,0.0,0.0,0.0,1.0
1489584091666036547,334,1489584091663149833,,-9.48615646362,-4.88395643234,24.5038547516,0.00329799996689,1.0,0.0,0.0,0.0,1.0,0.0,0.0,0.0,1.0,-0.365853667259,1.40243899822,0.426829278469,1.0,0.0,0.0,0.0,1.0,0.0,0.0,0.0,1.0,1.85311208496,-0.905008227539,9.88326445312,1.0,0.0,0.0,0.0,1.0,0.0,0.0,0.0,1.0
1489584091685023498,335,1489584091683142563,,-9.49637413025,-4.89194297791,24.5374946594,0.00308499997482,1.0,0.0,0.0,0.0,1.0,0.0,0.0,0.0,1.0,-0.670731723309,1.64634156227,0.670731723309,1.0,0.0,0.0,0.0,1.0,0.0,0.0,0.0,1.0,1.94409174805,-0.895431420898,9.72045874023,1.0,0.0,0.0,0.0,1.0,0.0,0.0,0.0,1.0
1489584091709942991,336,1489584091707464245,,-9.51960659027,-4.91645812988,24.5311546326,0.0074729998596,1.0,0.0,0.0,0.0,1.0,0.0,0.0,0.0,1.0,-0.609756112099,1.34146344662,0.304878056049,1.0,0.0,0.0,0.0,1.0,0.0,0.0,0.0,1.0,2.05901342773,-0.9193734375,9.83538041992,1.0,0.0,0.0,0.0,1.0,0.0,0.0,0.0,1.0
1489584091733917902,337,1489584091732580144,,-9.56366825104,-4.93080949783,24.5367965698,0.0069539998658,1.0,0.0,0.0,0.0,1.0,0.0,0.0,0.0,1.0,0.0609756112099,0.365853667259,0.975609779358,1.0,0.0,0.0,0.0,1.0,0.0,0.0,0.0,1.0,2.18830031738,-0.92416184082,9.92157167969,1.0,0.0,0.0,0.0,1.0,0.0,0.0,0.0,1.0
1489584091753669330,338,1489584091752386416,,-9.59986495972,-4.93433904648,24.5740184784,0.00263500004075,1.0,0.0,0.0,0.0,1.0,0.0,0.0,0.0,1.0,-0.18292683363,1.70731711388,0.548780500889,1.0,0.0,0.0,0.0,1.0,0.0,0.0,0.0,1.0,2.1691467041,-0.742202514648,10.0700121826,1.0,0.0,0.0,0.0,1.0,0.0,0.0,0.0,1.0
1489584091774977319,339,1489584091773279352,,-9.59907627106,-4.93937826157,24.5765724182,0.00291300006211,1.0,0.0,0.0,0.0,1.0,0.0,0.0,0.0,1.0,-0.12195122242,4.08536577225,-0.0609756112099,1.0,0.0,0.0,0.0,1.0,0.0,0.0,0.0,1.0,2.20266552734,-0.852335791016,9.88805285645,1.0,0.0,0.0,0.0,1.0,0.0,0.0,0.0,1.0
1489584091798316085,340,1489584091796217442,,-9.56494617462,-4.93892192841,24.5461711884,0.00289499992505,1.0,0.0,0.0,0.0,1.0,0.0,0.0,0.0,1.0,0.0609756112099,4.2682929039,-0.975609779358,1.0,0.0,0.0,0.0,1.0,0.0,0.0,0.0,1.0,2.1691467041,-0.847547387695,9.84016882324,1.0,0.0,0.0,0.0,1.0,0.0,0.0,0.0,1.0
1489584091818076263,341,1489584091816627672,,-9.52773284912,-4.94178724289,24.5108509064,0.00273200008087,1.0,0.0,0.0,0.0,1.0,0.0,0.0,0.0,1.0,0.426829278469,3.65853667259,-0.609756112099,1.0,0.0,0.0,0.0,1.0,0.0,0.0,0.0,1.0,2.03028300781,-0.881066210937,9.97903251953,1.0,0.0,0.0,0.0,1.0,0.0,0.0,0.0,1.0
1489584091838905502,342,1489584091837599254,,-9.49686431885,-4.93006086349,24.5189323425,0.0027270000428,1.0,0.0,0.0,0.0,1.0,0.0,0.0,0.0,1.0,0.365853667259,2.37804889679,-0.365853667259,1.0,0.0,0.0,0.0,1.0,0.0,0.0,0.0,1.0,1.99197578125,-0.823605371094,9.89762966309,1.0,0.0,0.0,0.0,1.0,0.0,0.0,0.0,1.0
1489584091860415313,343,1489584091859011774,,-9.48274421692,-4.92143154144,24.5248565674,0.00272200000472,1.0,0.0,0.0,0.0,1.0,0.0,0.0,0.0,1.0,-0.12195122242,2.07317066193,0.487804889679,1.0,0.0,0.0,0.0,1.0,0.0,0.0,0.0,1.0,2.11168571813,-0.847547387695,9.96945571289,1.0,0.0,0.0,0.0,1.0,0.0,0.0,0.0,1.0
1489584091883456945,344,1489584091879717732,,-9.48346328735,-4.92563438416,24.5221557617,0.0027499999851,1.0,0.0,0.0,0.0,1.0,0.0,0.0,0.0,1.0,-0.609756112099,1.8902438879,0.0609756112099,1.0,0.0,0.0,0.0,1.0,0.0,0.0,0.0,1.0,2.18830031738,-0.837970581055,10.1226846191,1.0,0.0,0.0,0.0,1.0,0.0,0.0,0.0,1.0
1489584091904915714,345,1489584091901350355,,-9.49145317078,-4.94476604462,24.496673584,0.00310100009665,1.0,0.0,0.0,0.0,1.0,0.0,0.0,0.0,1.0,-1.03658533096,2.25609779358,-0.548780500889,1.0,0.0,0.0,0.0,1.0,0.0,0.0,0.0,1.0,2.12605122035,-0.952892260742,10.0269165527,1.0,0.0,0.0,0.0,1.0,0.0,0.0,0.0,1.0
1489584091929617447,346,1489584091924887507,,-9.5054807663,-4.96789646149,24.4597434998,0.00298899994232,1.0,0.0,0.0,0.0,1.0,0.0,0.0,0.0,1.0,-0.243902444839,2.07317066193,-0.609756112099,1.0,0.0,0.0,0.0,1.0,0.0,0.0,0.0,1.0,2.24097275391,-0.837970581055,9.90241806641,1.0,0.0,0.0,0.0,1.0,0.0,0.0,0.0,1.0
1489584091949511427,347,1489584091947753565,,-9.50182056427,-4.97302103043,24.4939937592,0.00526800006628,1.0,0.0,0.0,0.0,1.0,0.0,0.0,0.0,1.0,-0.426829278469,2.19512200356,-0.975609779358,1.0,0.0,0.0,0.0,1.0,0.0,0.0,0.0,1.0,1.99197578125,-0.837970581055,9.92636008301,1.0,0.0,0.0,0.0,1.0,0.0,0.0,0.0,1.0
1489584091972016133,348,1489584091970356031,,-9.49494838715,-4.96156024933,24.4494495392,0.00369399995543,1.0,0.0,0.0,0.0,1.0,0.0,0.0,0.0,1.0,-0.0609756112099,2.31707310677,-0.792682945728,1.0,0.0,0.0,0.0,1.0,0.0,0.0,0.0,1.0,2.04464821777,-0.866701000977,10.0939541992,1.0,0.0,0.0,0.0,1.0,0.0,0.0,0.0,1.0
1489584091993509173,349,1489584091991168916,,-9.48315525055,-4.94711780548,24.4154071808,0.00317099993117,1.0,0.0,0.0,0.0,1.0,0.0,0.0,0.0,1.0,-0.12195122242,2.5,-0.853658556938,1.0,0.0,0.0,0.0,1.0,0.0,0.0,0.0,1.0,2.03028300781,-0.809240161133,9.94551369629,1.0,0.0,0.0,0.0,1.0,0.0,0.0,0.0,1.0
1489584092014115287,350,1489584092012044717,,-9.48132514954,-4.94516515732,24.4134864807,0.00335299992003,1.0,0.0,0.0,0.0,1.0,0.0,0.0,0.0,1.0,-0.18292683363,2.19512200356,-0.365853667259,1.0,0.0,0.0,0.0,1.0,0.0,0.0,0.0,1.0,2.12126281703,-0.905008227539,10.0221281494,1.0,0.0,0.0,0.0,1.0,0.0,0.0,0.0,1.0
1489584092034677704,351,1489584092032844842,,-9.49285793304,-4.93828725815,24.4265651703,0.00836899969727,1.0,0.0,0.0,0.0,1.0,0.0,0.0,0.0,1.0,-0.243902444839,1.8292683363,0.0,1.0,0.0,0.0,0.0,1.0,0.0,0.0,0.0,1.0,2.12605122035,-0.780509741211,10.0556469727,1.0,0.0,0.0,0.0,1.0,0.0,0.0,0.0,1.0
1489584092057895325,352,1489584092055867932,,-9.49595928192,-4.93158960342,24.445892334,0.0028530000709,1.0,0.0,0.0,0.0,1.0,0.0,0.0,0.0,1.0,-0.18292683363,2.43902444839,0.12195122242,1.0,0.0,0.0,0.0,1.0,0.0,0.0,0.0,1.0,2.02070620117,-0.703895288086,10.0029745361,1.0,0.0,0.0,0.0,1.0,0.0,0.0,0.0,1.0
1489584092079910916,353,1489584092077924669,,-9.49385929108,-4.93509292603,24.4360637665,0.00282999989577,1.0,0.0,0.0,0.0,1.0,0.0,0.0,0.0,1.0,-0.365853667259,3.17073178291,-0.487804889679,1.0,0.0,0.0,0.0,1.0,0.0,0.0,0.0,1.0,2.17872351074,-0.962469067383,9.90720646973,1.0,0.0,0.0,0.0,1.0,0.0,0.0,0.0,1.0
1489584092104637805,354,1489584092102812131,,-9.47217082977,-4.93988609314,24.4795322418,0.00326499994844,1.0,0.0,0.0,0.0,1.0,0.0,0.0,0.0,1.0,-0.0609756112099,2.92682933807,-0.18292683363,1.0,0.0,0.0,0.0,1.0,0.0,0.0,0.0,1.0,2.04943662109,-0.905008227539,9.98860932617,1.0,0.0,0.0,0.0,1.0,0.0,0.0,0.0,1.0
1489584092130291725,355,1489584092127036052,,-9.46203327179,-4.94521522522,24.5054340363,0.00278600002639,1.0,0.0,0.0,0.0,1.0,0.0,0.0,0.0,1.0,-0.243902444839,1.15853655338,0.426829278469,1.0,0.0,0.0,0.0,1.0,0.0,0.0,0.0,1.0,1.87705410156,-0.885854614258,9.97424411621,1.0,0.0,0.0,0.0,1.0,0.0,0.0,0.0,1.0
1489584092148550134,356,1489584092145801753,,-9.4759721756,-4.94589757919,24.5457935333,0.00489499978721,1.0,0.0,0.0,0.0,1.0,0.0,0.0,0.0,1.0,-0.609756112099,0.792682945728,1.09756100178,1.0,0.0,0.0,0.0,1.0,0.0,0.0,0.0,1.0,2.13562802699,-0.684741674805,9.94551369629,1.0,0.0,0.0,0.0,1.0,0.0,0.0,0.0,1.0
1489584092170129164,357,1489584092168040834,,-9.48443603516,-4.95289230347,24.5569934845,0.0040600001812,1.0,0.0,0.0,0.0,1.0,0.0,0.0,0.0,1.0,-0.609756112099,1.64634156227,0.609756112099,1.0,0.0,0.0,0.0,1.0,0.0,0.0,0.0,1.0,1.95366855469,-0.972045874023,9.86411083984,1.0,0.0,0.0,0.0,1.0,0.0,0.0,0.0,1.0
1489584092192060537,358,1489584092189616999,,-9.50627613068,-4.96505784988,24.5912857056,0.00350499991328,1.0,0.0,0.0,0.0,1.0,0.0,0.0,0.0,1.0,-0.426829278469,1.15853655338,0.975609779358,1.0,0.0,0.0,0.0,1.0,0.0,0.0,0.0,1.0,2.10210891149,-0.976834277344,9.82101520996,1.0,0.0,0.0,0.0,1.0,0.0,0.0,0.0,1.0
1489584092214337638,359,1489584092211910402,,-9.5312833786,-4.97325611115,24.6468143463,0.0037579999771,1.0,0.0,0.0,0.0,1.0,0.0,0.0,0.0,1.0,0.304878056049,0.975609779358,0.548780500889,1.0,0.0,0.0,0.0,1.0,0.0,0.0,0.0,1.0,2.02549460449,-0.981622680664,9.91678327637,1.0,0.0,0.0,0.0,1.0,0.0,0.0,0.0,1.0
1489584092237262499,360,1489584092234868700,,-9.56019115448,-4.96344852448,24.6852302551,0.00308199995197,1.0,0.0,0.0,0.0,1.0,0.0,0.0,0.0,1.0,0.548780500889,1.70731711388,0.18292683363,1.0,0.0,0.0,0.0,1.0,0.0,0.0,0.0,1.0,2.06859023437,-0.814028564453,9.80186159668,1.0,0.0,0.0,0.0,1.0,0.0,0.0,0.0,1.0
1489584092258907622,361,1489584092256456324,,-9.56523609161,-4.94337463379,24.6795387268,0.00282200006768,1.0,0.0,0.0,0.0,1.0,0.0,0.0,0.0,1.0,0.18292683363,2.62195134163,-0.914634168148,1.0,0.0,0.0,0.0,1.0,0.0,0.0,0.0,1.0,2.09732050817,-0.708683691406,10.0843773926,1.0,0.0,0.0,0.0,1.0,0.0,0.0,0.0,1.0
1489584092282761596,362,1489584092278127437,,-9.56384658813,-4.93498182297,24.6416339874,0.00308099994436,1.0,0.0,0.0,0.0,1.0,0.0,0.0,0.0,1.0,-0.365853667259,2.80487799644,-2.01219511032,1.0,0.0,0.0,0.0,1.0,0.0,0.0,0.0,1.0,2.14520483363,-0.876277807617,9.94551369629,1.0,0.0,0.0,0.0,1.0,0.0,0.0,0.0,1.0
1489584092305425364,363,1489584092299140998,,-9.55504131317,-4.93602657318,24.6146812439,0.00344899995252,1.0,0.0,0.0,0.0,1.0,0.0,0.0,0.0,1.0,-0.853658556938,3.10975623131,-2.19512200356,1.0,0.0,0.0,0.0,1.0,0.0,0.0,0.0,1.0,2.26970317383,-0.852335791016,9.92636008301,1.0,0.0,0.0,0.0,1.0,0.0,0.0,0.0,1.0
1489584092331245376,364,1489584092322115286,,-9.54103279114,-4.95135164261,24.554851532,0.00278500001878,1.0,0.0,0.0,0.0,1.0,0.0,0.0,0.0,1.0,-0.670731723309,3.53658556938,-2.13414645195,1.0,0.0,0.0,0.0,1.0,0.0,0.0,0.0,1.0,2.08295529821,-0.967257470703,9.92157167969,1.0,0.0,0.0,0.0,1.0,0.0,0.0,0.0,1.0
1489584092348120871,365,1489584092344672127,,-9.53388118744,-4.96182060242,24.4981193542,0.00312200002372,1.0,0.0,0.0,0.0,1.0,0.0,0.0,0.0,1.0,-0.12195122242,3.17073178291,-1.64634156227,1.0,0.0,0.0,0.0,1.0,0.0,0.0,0.0,1.0,2.22660754395,-0.876277807617,9.95987890625,1.0,0.0,0.0,0.0,1.0,0.0,0.0,0.0,1.0
1489584092370500889,366,1489584092366170323,,-9.50773525238,-4.95247554779,24.4843254089,0.00339399999939,1.0,0.0,0.0,0.0,1.0,0.0,0.0,0.0,1.0,-0.12195122242,3.47560977936,-1.46341466904,1.0,0.0,0.0,0.0,1.0,0.0,0.0,0.0,1.0,2.11647412145,-0.77093293457,9.96945571289,1.0,0.0,0.0,0.0,1.0,0.0,0.0,0.0,1.0
1489584092392320075,367,1489584092389862891,,-9.4797077179,-4.94329929352,24.4644603729,0.00352800008841,1.0,0.0,0.0,0.0,1.0,0.0,0.0,0.0,1.0,0.18292683363,2.92682933807,-0.548780500889,1.0,0.0,0.0,0.0,1.0,0.0,0.0,0.0,1.0,2.06859023437,-0.881066210937,9.81143840332,1.0,0.0,0.0,0.0,1.0,0.0,0.0,0.0,1.0
1489584092413523168,368,1489584092411049213,,-9.45748138428,-4.93766689301,24.4665794373,0.0034380001016,1.0,0.0,0.0,0.0,1.0,0.0,0.0,0.0,1.0,0.487804889679,2.07317066193,0.975609779358,1.0,0.0,0.0,0.0,1.0,0.0,0.0,0.0,1.0,1.97761057129,-0.847547387695,9.94072529297,1.0,0.0,0.0,0.0,1.0,0.0,0.0,0.0,1.0
1489584092436270216,369,1489584092432688190,,-9.45733737946,-4.93227910995,24.5061283112,0.00796199962497,1.0,0.0,0.0,0.0,1.0,0.0,0.0,0.0,1.0,0.0609756112099,0.853658556938,2.5,1.0,0.0,0.0,0.0,1.0,0.0,0.0,0.0,1.0,1.92972653809,-0.837970581055,9.97903251953,1.0,0.0,0.0,0.0,1.0,0.0,0.0,0.0,1.0
1489584092455725239,370,1489584092453242274,,-9.48582839966,-4.95847272873,24.6081638336,0.00276100006886,1.0,0.0,0.0,0.0,1.0,0.0,0.0,0.0,1.0,-1.76829278469,-1.34146344662,5.24390268326,1.0,0.0,0.0,0.0,1.0,0.0,0.0,0.0,1.0,1.85311208496,-1.04866025408,9.93593688965,1.0,0.0,0.0,0.0,1.0,0.0,0.0,0.0,1.0
1489584092477747445,371,1489584092474071096,,-9.58620071411,-5.04808092117,24.7872581482,0.00273500010371,1.0,0.0,0.0,0.0,1.0,0.0,0.0,0.0,1.0,-3.35365867615,-5.42682933807,7.98780536652,1.0,0.0,0.0,0.0,1.0,0.0,0.0,0.0,1.0,1.97761057129,-1.00556469727,9.90241806641,1.0,0.0,0.0,0.0,1.0,0.0,0.0,0.0,1.0
1489584092504896622,372,1489584092496733353,,-9.76998519897,-5.16608095169,24.9777202606,0.00265599996783,1.0,0.0,0.0,0.0,1.0,0.0,0.0,0.0,1.0,-3.84146332741,-6.46341466904,7.74390268326,1.0,0.0,0.0,0.0,1.0,0.0,0.0,0.0,1.0,2.18830031738,-0.823605371094,10.060435376,1.0,0.0,0.0,0.0,1.0,0.0,0.0,0.0,1.0
1489584092531916008,373,1489584092518923580,,-9.92948150635,-5.26170444489,25.1205539703,0.00273699988611,1.0,0.0,0.0,0.0,1.0,0.0,0.0,0.0,1.0,-2.92682933807,-3.29268312454,6.15853643417,1.0,0.0,0.0,0.0,1.0,0.0,0.0,0.0,1.0,2.35110588414,-0.727837304687,10.0700121826,1.0,0.0,0.0,0.0,1.0,0.0,0.0,0.0,1.0
1489584092545866299,374,1489584092540084172,,-10.0085868835,-5.32670736313,25.1738166809,0.00276300008409,1.0,0.0,0.0,0.0,1.0,0.0,0.0,0.0,1.0,-1.76829278469,0.243902444839,2.62195134163,1.0,0.0,0.0,0.0,1.0,0.0,0.0,0.0,1.0,2.3415290775,-0.885854614258,10.0652237793,1.0,0.0,0.0,0.0,1.0,0.0,0.0,0.0,1.0
1489584092565061478,375,1489584092560990234,,-10.0247707367,-5.34325027466,25.2046279907,0.00303900009021,1.0,0.0,0.0,0.0,1.0,0.0,0.0,0.0,1.0,-0.853658556938,4.20731735229,-0.975609779358,1.0,0.0,0.0,0.0,1.0,0.0,0.0,0.0,1.0,2.41814367676,-0.895431420898,9.92636008301,1.0,0.0,0.0,0.0,1.0,0.0,0.0,0.0,1.0
1489584092586566341,376,1489584092582153379,,-9.97452449799,-5.33602285385,25.0947608948,0.00276899989694,1.0,0.0,0.0,0.0,1.0,0.0,0.0,0.0,1.0,0.426829278469,7.50000047684,-4.08536577225,1.0,0.0,0.0,0.0,1.0,0.0,0.0,0.0,1.0,2.31279880371,-0.909796630859,9.7348239502,1.0,0.0,0.0,0.0,1.0,0.0,0.0,0.0,1.0
1489584092609539483,377,1489584092605957770,,-9.8515996933,-5.29237556458,24.9112873077,0.0028619999066,1.0,0.0,0.0,0.0,1.0,0.0,0.0,0.0,1.0,0.670731723309,9.5731716156,-6.70731735229,1.0,0.0,0.0,0.0,1.0,0.0,0.0,0.0,1.0,2.26012636719,-0.76135612793,9.98860932617,1.0,0.0,0.0,0.0,1.0,0.0,0.0,0.0,1.0
1489584092636557046,378,1489584092630668357,,-9.66547584534,-5.24556827545,24.721326828,0.00461200019345,1.0,0.0,0.0,0.0,1.0,0.0,0.0,0.0,1.0,0.731707334518,11.0975618362,-8.04878044128,1.0,0.0,0.0,0.0,1.0,0.0,0.0,0.0,1.0,2.04464821777,-1.01992990723,10.046070166,1.0,0.0,0.0,0.0,1.0,0.0,0.0,0.0,1.0
1489584092654591706,379,1489584092651488273,,-9.47746944427,-5.21883249283,24.5155334473,0.00496299983934,1.0,0.0,0.0,0.0,1.0,0.0,0.0,0.0,1.0,0.0,10.4878053665,-8.23170757294,1.0,0.0,0.0,0.0,1.0,0.0,0.0,0.0,1.0,1.93930334473,-1.04387185076,9.86411083984,1.0,0.0,0.0,0.0,1.0,0.0,0.0,0.0,1.0
1489584092674736259,380,1489584092672217356,,-9.322930336,-5.20268154144,24.3397655487,0.00310399988666,1.0,0.0,0.0,0.0,1.0,0.0,0.0,0.0,1.0,-0.365853667259,8.35365867615,-7.19512224197,1.0,0.0,0.0,0.0,1.0,0.0,0.0,0.0,1.0,1.82438166504,-0.943315454102,9.91678327637,1.0,0.0,0.0,0.0,1.0,0.0,0.0,0.0,1.0
1489584092703360642,381,1489584092695035499,,-9.2134103775,-5.20273971558,24.1853790283,0.00279999990016,1.0,0.0,0.0,0.0,1.0,0.0,0.0,0.0,1.0,-0.731707334518,4.81707286835,-4.63414621353,1.0,0.0,0.0,0.0,1.0,0.0,0.0,0.0,1.0,1.66157595215,-0.76135612793,9.96945571289,1.0,0.0,0.0,0.0,1.0,0.0,0.0,0.0,1.0
1489584092723320403,382,1489584092717407391,,-9.1853351593,-5.21071577072,24.1576576233,0.00327800004743,1.0,0.0,0.0,0.0,1.0,0.0,0.0,0.0,1.0,-0.914634168148,1.64634156227,-2.37804889679,1.0,0.0,0.0,0.0,1.0,0.0,0.0,0.0,1.0,1.73819040527,-0.857124194336,9.76834277344,1.0,0.0,0.0,0.0,1.0,0.0,0.0,0.0,1.0
1489584092747070002,383,1489584092739502462,,-9.20322418213,-5.23206949234,24.1663856506,0.00305599998683,1.0,0.0,0.0,0.0,1.0,0.0,0.0,0.0,1.0,-1.15853655338,0.0609756112099,-0.365853667259,1.0,0.0,0.0,0.0,1.0,0.0,0.0,0.0,1.0,1.95366855469,-0.885854614258,9.95987890625,1.0,0.0,0.0,0.0,1.0,0.0,0.0,0.0,1.0
1489584092767290180,384,1489584092761770397,,-9.25939846039,-5.24471521378,24.1710338593,0.00291200005449,1.0,0.0,0.0,0.0,1.0,0.0,0.0,0.0,1.0,-0.487804889679,-1.03658533096,0.548780500889,1.0,0.0,0.0,0.0,1.0,0.0,0.0,0.0,1.0,2.03985981445,-0.895431420898,9.89284125977,1.0,0.0,0.0,0.0,1.0,0.0,0.0,0.0,1.0
1489584092787175306,385,1489584092784668070,,-9.34230613708,-5.21066522598,24.2042064667,0.00287099997513,1.0,0.0,0.0,0.0,1.0,0.0,0.0,0.0,1.0,0.487804889679,-0.609756112099,0.792682945728,1.0,0.0,0.0,0.0,1.0,0.0,0.0,0.0,1.0,2.24097275391,-0.569819995117,9.99339772949,1.0,0.0,0.0,0.0,1.0,0.0,0.0,0.0,1.0
1489584092808650169,386,1489584092805896267,,-9.38910770416,-5.14265298843,24.2002620697,0.00301100010984,1.0,0.0,0.0,0.0,1.0,0.0,0.0,0.0,1.0,0.548780500889,1.2804877758,0.548780500889,1.0,0.0,0.0,0.0,1.0,0.0,0.0,0.0,1.0,2.28885678711,-0.349553442383,10.2280294922,1.0,0.0,0.0,0.0,1.0,0.0,0.0,0.0,1.0
1489584092836770230,387,1489584092832544664,,-9.37383651733,-5.08938837051,24.2380542755,0.00726399989799,1.0,0.0,0.0,0.0,1.0,0.0,0.0,0.0,1.0,0.487804889679,4.75609779358,0.243902444839,1.0,0.0,0.0,0.0,1.0,0.0,0.0,0.0,1.0,2.26491477051,-0.780509741211,10.0508585693,1.0,0.0,0.0,0.0,1.0,0.0,0.0,0.0,1.0
1489584092855673899,388,1489584092852923383,,-9.33774471283,-5.10013008118,24.2479801178,0.00285500008613,1.0,0.0,0.0,0.0,1.0,0.0,0.0,0.0,1.0,0.12195122242,4.63414621353,0.0609756112099,1.0,0.0,0.0,0.0,1.0,0.0,0.0,0.0,1.0,2.12605122035,-1.10133276367,9.83538041992,1.0,0.0,0.0,0.0,1.0,0.0,0.0,0.0,1.0
1489584092877106679,389,1489584092873435122,,-9.30624008179,-5.12830734253,24.2494506836,0.00287099997513,1.0,0.0,0.0,0.0,1.0,0.0,0.0,0.0,1.0,-0.670731723309,2.98780488968,-0.731707334518,1.0,0.0,0.0,0.0,1.0,0.0,0.0,0.0,1.0,1.82438166504,-1.16837033709,9.95030209961,1.0,0.0,0.0,0.0,1.0,0.0,0.0,0.0,1.0
1489584092906216947,390,1489584092896389566,,-9.26051235199,-5.17254114151,24.2583389282,0.00279200007208,1.0,0.0,0.0,0.0,1.0,0.0,0.0,0.0,1.0,-1.8292683363,3.04878044128,-1.09756100178,1.0,0.0,0.0,0.0,1.0,0.0,0.0,0.0,1.0,1.70945998535,-0.76135612793,10.1753570557,1.0,0.0,0.0,0.0,1.0,0.0,0.0,0.0,1.0
1489584092928200716,391,1489584092917078649,,-9.23643875122,-5.21708345413,24.249578476,0.00282800011337,1.0,0.0,0.0,0.0,1.0,0.0,0.0,0.0,1.0,-2.86585378647,1.03658533096,-0.792682945728,1.0,0.0,0.0,0.0,1.0,0.0,0.0,0.0,1.0,1.79565124512,-0.928950244141,9.77791958008,1.0,0.0,0.0,0.0,1.0,0.0,0.0,0.0,1.0
1489584092946021314,392,1489584092939480386,,-9.28043746948,-5.29388570786,24.2791347504,0.00278800004162,1.0,0.0,0.0,0.0,1.0,0.0,0.0,0.0,1.0,-3.53658556938,-1.2804877758,0.426829278469,1.0,0.0,0.0,0.0,1.0,0.0,0.0,0.0,1.0,2.04943662109,-0.976834277344,10.046070166,1.0,0.0,0.0,0.0,1.0,0.0,0.0,0.0,1.0
1489584092965486909,393,1489584092962946861,,-9.3574180603,-5.40083742142,24.3220882416,0.00316000008024,1.0,0.0,0.0,0.0,1.0,0.0,0.0,0.0,1.0,-3.7804877758,-1.09756100178,0.975609779358,1.0,0.0,0.0,0.0,1.0,0.0,0.0,0.0,1.0,2.05901342773,-1.18273554705,9.72524714355,1.0,0.0,0.0,0.0,1.0,0.0,0.0,0.0,1.0
1489584092988066249,394,1489584092985745576,,-9.45827293396,-5.50626850128,24.3875007629,0.0030539999716,1.0,0.0,0.0,0.0,1.0,0.0,0.0,0.0,1.0,-3.29268312454,-1.2195122242,-0.365853667259,1.0,0.0,0.0,0.0,1.0,0.0,0.0,0.0,1.0,2.31279880371,-0.991199487305,9.91199487305,1.0,0.0,0.0,0.0,1.0,0.0,0.0,0.0,1.0
