%time,field.header.seq,field.header.stamp,field.header.frame_id,field.orientation.x,field.orientation.y,field.orientation.z,field.orientation.w,field.orientation_covariance0,field.orientation_covariance1,field.orientation_covariance2,field.orientation_covariance3,field.orientation_covariance4,field.orientation_covariance5,field.orientation_covariance6,field.orientation_covariance7,field.orientation_covariance8,field.angular_velocity.x,field.angular_velocity.y,field.angular_velocity.z,field.angular_velocity_covariance0,field.angular_velocity_covariance1,field.angular_velocity_covariance2,field.angular_velocity_covariance3,field.angular_velocity_covariance4,field.angular_velocity_covariance5,field.angular_velocity_covariance6,field.angular_velocity_covariance7,field.angular_velocity_covariance8,field.linear_acceleration.x,field.linear_acceleration.y,field.linear_acceleration.z,field.linear_acceleration_covariance0,field.linear_acceleration_covariance1,field.linear_acceleration_covariance2,field.linear_acceleration_covariance3,field.linear_acceleration_covariance4,field.linear_acceleration_covariance5,field.linear_acceleration_covariance6,field.linear_acceleration_covariance7,field.linear_acceleration_covariance8
1489585213355766328,448,1489585213063449847,,-4.43398332596,-6.2296872139,100.109542847,0.00108299998101,1.0,0.0,0.0,0.0,1.0,0.0,0.0,0.0,1.0,24.1463432312,-16.9512195587,-11.5853662491,1.0,0.0,0.0,0.0,1.0,0.0,0.0,0.0,1.0,2.07337849156,-0.363918652344,6.88572397461,1.0,0.0,0.0,0.0,1.0,0.0,0.0,0.0,1.0
1489585213355961015,449,1489585213084197107,,-4.952044487,-5.61721277237,99.8832321167,0.00337999989279,1.0,0.0,0.0,0.0,1.0,0.0,0.0,0.0,1.0,25.4268302917,-11.5853662491,-11.341463089,1.0,0.0,0.0,0.0,1.0,0.0,0.0,0.0,1.0,2.18830031738,-0.225054956055,6.83783994141,1.0,0.0,0.0,0.0,1.0,0.0,0.0,0.0,1.0
1489585213356052838,450,1489585213106980562,,-5.33504724503,-4.96080160141,99.6409454346,0.00361400004476,1.0,0.0,0.0,0.0,1.0,0.0,0.0,0.0,1.0,24.8780498505,-2.86585378647,-9.63414573669,1.0,0.0,0.0,0.0,1.0,0.0,0.0,0.0,1.0,2.12126281703,-0.181959326172,6.85699355469,1.0,0.0,0.0,0.0,1.0,0.0,0.0,0.0,1.0
1489585213356242682,451,1489585213127687718,,-5.48980331421,-4.37956142426,99.459022522,0.00113200000487,1.0,0.0,0.0,0.0,1.0,0.0,0.0,0.0,1.0,22.4390239716,0.853658556938,-6.64634132385,1.0,0.0,0.0,0.0,1.0,0.0,0.0,0.0,1.0,1.70467158203,-0.119710083008,7.23527741699,1.0,0.0,0.0,0.0,1.0,0.0,0.0,0.0,1.0
1489585213356304400,452,1489585213149605809,,-5.58323574066,-3.8260076046,99.3057250977,0.00466400012374,1.0,0.0,0.0,0.0,1.0,0.0,0.0,0.0,1.0,19.817073822,-1.15853655338,-6.46341466904,1.0,0.0,0.0,0.0,1.0,0.0,0.0,0.0,1.0,1.51792385254,0.0430956298828,7.48427438965,1.0,0.0,0.0,0.0,1.0,0.0,0.0,0.0,1.0
1489585213356454869,453,1489585213170619735,,-5.76041316986,-3.32393503189,99.111038208,0.00146599998698,1.0,0.0,0.0,0.0,1.0,0.0,0.0,0.0,1.0,15.975610733,-3.23170733452,-10.0,1.0,0.0,0.0,0.0,1.0,0.0,0.0,0.0,1.0,2.14041643031,0.488417138672,8.36534001606,1.0,0.0,0.0,0.0,1.0,0.0,0.0,0.0,1.0
1489585213359207156,454,1489585213191241162,,-5.9525976181,-2.91351270676,98.8341598511,0.00111099996138,1.0,0.0,0.0,0.0,1.0,0.0,0.0,0.0,1.0,10.4268293381,-0.853658556938,-13.2926826477,1.0,0.0,0.0,0.0,1.0,0.0,0.0,0.0,1.0,2.54743056641,0.483628735352,9.27034882812,1.0,0.0,0.0,0.0,1.0,0.0,0.0,0.0,1.0
1489585213359255594,455,1489585213212945035,,-6.05285024643,-2.65043187141,98.5266113281,0.00113099999726,1.0,0.0,0.0,0.0,1.0,0.0,0.0,0.0,1.0,2.68292689323,3.04878044128,-14.3902444839,1.0,0.0,0.0,0.0,1.0,0.0,0.0,0.0,1.0,2.32716386754,0.253785375977,10.2376062988,1.0,0.0,0.0,0.0,1.0,0.0,0.0,0.0,1.0
1489585213359306687,456,1489585213232916724,,-6.04155731201,-2.59534716606,98.2133407593,0.00116900005378,1.0,0.0,0.0,0.0,1.0,0.0,0.0,0.0,1.0,-4.2682929039,5.79268312454,-13.4146347046,1.0,0.0,0.0,0.0,1.0,0.0,0.0,0.0,1.0,2.37983659633,-0.407014282227,11.0803652832,1.0,0.0,0.0,0.0,1.0,0.0,0.0,0.0,1.0
1489585213359348041,457,1489585213254350754,,-5.94302082062,-2.73673200607,97.9458618164,0.00115799997002,1.0,0.0,0.0,0.0,1.0,0.0,0.0,0.0,1.0,-8.90243911743,10.3658542633,-10.2439022064,1.0,0.0,0.0,0.0,1.0,0.0,0.0,0.0,1.0,2.23618435059,-0.900219824219,11.765106958,1.0,0.0,0.0,0.0,1.0,0.0,0.0,0.0,1.0
1489585213359381114,458,1489585213276945563,,-5.67474603653,-3.01909661293,97.732208252,0.00451399991289,1.0,0.0,0.0,0.0,1.0,0.0,0.0,0.0,1.0,-10.6707315445,14.7560987473,-7.86585378647,1.0,0.0,0.0,0.0,1.0,0.0,0.0,0.0,1.0,1.38863696289,-1.64242233887,12.2295820801,1.0,0.0,0.0,0.0,1.0,0.0,0.0,0.0,1.0
1489585213359415333,459,1489585213296945480,,-5.37659740448,-3.32482337952,97.5617141724,0.00130999996327,1.0,0.0,0.0,0.0,1.0,0.0,0.0,0.0,1.0,-9.26829242706,11.1585359573,-7.62195110321,1.0,0.0,0.0,0.0,1.0,0.0,0.0,0.0,1.0,1.35511813965,-1.84353527832,12.4019645996,1.0,0.0,0.0,0.0,1.0,0.0,0.0,0.0,1.0
1489585213359488770,460,1489585213317533001,,-5.13387393951,-3.59103393555,97.3747177124,0.00130200001877,1.0,0.0,0.0,0.0,1.0,0.0,0.0,0.0,1.0,-8.84146404266,16.0975608826,-9.02439117432,1.0,0.0,0.0,0.0,1.0,0.0,0.0,0.0,1.0,2.31758720703,-1.72382519531,13.0100918213,1.0,0.0,0.0,0.0,1.0,0.0,0.0,0.0,1.0
1489585213359616270,461,1489585213338497396,,-4.74126958847,-3.83720445633,97.1551055908,0.0019640000537,1.0,0.0,0.0,0.0,1.0,0.0,0.0,0.0,1.0,-10.2439022064,27.8658542633,-8.41463470459,1.0,0.0,0.0,0.0,1.0,0.0,0.0,0.0,1.0,2.48518132324,-1.40300217285,13.4027408936,1.0,0.0,0.0,0.0,1.0,0.0,0.0,0.0,1.0
1489585213362895015,462,1489585213360594967,,-4.07718133926,-4.11169099808,96.9449920654,0.00173599994741,1.0,0.0,0.0,0.0,1.0,0.0,0.0,0.0,1.0,-12.9268293381,37.5609779358,-5.06097555161,1.0,0.0,0.0,0.0,1.0,0.0,0.0,0.0,1.0,2.17393510742,-1.23061965332,13.5703350098,1.0,0.0,0.0,0.0,1.0,0.0,0.0,0.0,1.0
1489585213383792796,463,1489585213381522799,,-3.29349541664,-4.44172143936,96.824546814,0.00111700000707,1.0,0.0,0.0,0.0,1.0,0.0,0.0,0.0,1.0,-14.6341466904,35.9756088257,-0.792682945728,1.0,0.0,0.0,0.0,1.0,0.0,0.0,0.0,1.0,0.981622680664,-1.47482822266,13.2159931641,1.0,0.0,0.0,0.0,1.0,0.0,0.0,0.0,1.0
1489585213404378181,464,1489585213402340580,,-2.60798788071,-4.78863191605,96.7663574219,0.00112999998964,1.0,0.0,0.0,0.0,1.0,0.0,0.0,0.0,1.0,-12.6829271317,22.1951236725,-0.487804889679,1.0,0.0,0.0,0.0,1.0,0.0,0.0,0.0,1.0,0.119710083008,-1.63284553223,12.5073094727,1.0,0.0,0.0,0.0,1.0,0.0,0.0,0.0,1.0
1489585213431112307,465,1489585213425618565,,-2.24824428558,-5.08757066727,96.6861801147,0.0055800001137,1.0,0.0,0.0,0.0,1.0,0.0,0.0,0.0,1.0,-7.74390268326,4.69512224197,-3.71951246262,1.0,0.0,0.0,0.0,1.0,0.0,0.0,0.0,1.0,0.124498486328,-1.84353527832,12.1721212402,1.0,0.0,0.0,0.0,1.0,0.0,0.0,0.0,1.0
1489585213451261807,466,1489585213446175148,,-2.22058343887,-5.29945087433,96.5778045654,0.00103699997999,1.0,0.0,0.0,0.0,1.0,0.0,0.0,0.0,1.0,-5.60975599289,-3.96341490746,-6.15853643417,1.0,0.0,0.0,0.0,1.0,0.0,0.0,0.0,1.0,0.569819995117,-1.98718737793,11.8896054443,1.0,0.0,0.0,0.0,1.0,0.0,0.0,0.0,1.0
1489585213476590727,467,1489585213473587867,,-2.32916784286,-5.54971456528,96.4138946533,0.00815800018609,1.0,0.0,0.0,0.0,1.0,0.0,0.0,0.0,1.0,-5.54878091812,-3.23170733452,-5.54878091812,1.0,0.0,0.0,0.0,1.0,0.0,0.0,0.0,1.0,0.905008227539,-1.87705410156,11.391611499,1.0,0.0,0.0,0.0,1.0,0.0,0.0,0.0,1.0
1489585213497196633,468,1489585213494113877,,-2.33252549171,-5.75429534912,96.3212127686,0.00136999995448,1.0,0.0,0.0,0.0,1.0,0.0,0.0,0.0,1.0,-3.96341490746,0.975609779358,-2.92682933807,1.0,0.0,0.0,0.0,1.0,0.0,0.0,0.0,1.0,0.45968671875,-2.11647412145,10.8026378906,1.0,0.0,0.0,0.0,1.0,0.0,0.0,0.0,1.0
1489585213518851652,469,1489585213515849105,,-2.21366691589,-5.95092439651,96.2881393433,0.00163600000087,1.0,0.0,0.0,0.0,1.0,0.0,0.0,0.0,1.0,-0.487804889679,1.09756100178,0.304878056049,1.0,0.0,0.0,0.0,1.0,0.0,0.0,0.0,1.0,-0.205901342773,-2.20745393066,9.71567033691,1.0,0.0,0.0,0.0,1.0,0.0,0.0,0.0,1.0
1489585213540313703,470,1489585213536350480,,-2.13025140762,-6.03813505173,96.283744812,0.0012529999949,1.0,0.0,0.0,0.0,1.0,0.0,0.0,0.0,1.0,4.93902444839,-5.73170757294,-1.46341466904,1.0,0.0,0.0,0.0,1.0,0.0,0.0,0.0,1.0,-0.325611425781,-1.8626888916,8.93037219238,1.0,0.0,0.0,0.0,1.0,0.0,0.0,0.0,1.0
1489585213560608776,471,1489585213557341333,,-2.23057627678,-5.93893194199,96.1760253906,0.0016230000183,1.0,0.0,0.0,0.0,1.0,0.0,0.0,0.0,1.0,11.4024391174,-11.8902444839,-9.75609779358,1.0,0.0,0.0,0.0,1.0,0.0,0.0,0.0,1.0,-0.00478840332031,-1.11569797363,8.31745598286,1.0,0.0,0.0,0.0,1.0,0.0,0.0,0.0,1.0
1489585213581106557,472,1489585213578116510,,-2.49169945717,-5.64246082306,95.8997879028,0.00172099994961,1.0,0.0,0.0,0.0,1.0,0.0,0.0,0.0,1.0,17.317073822,-17.7439022064,-17.8048782349,1.0,0.0,0.0,0.0,1.0,0.0,0.0,0.0,1.0,0.162805712891,-0.665588061523,7.46990917969,1.0,0.0,0.0,0.0,1.0,0.0,0.0,0.0,1.0
1489585213601649963,473,1489585213598601687,,-2.90194058418,-5.16719579697,95.5009841919,0.00244800001383,1.0,0.0,0.0,0.0,1.0,0.0,0.0,0.0,1.0,21.4024391174,-22.4390239716,-22.682926178,1.0,0.0,0.0,0.0,1.0,0.0,0.0,0.0,1.0,0.679953271484,-0.172382519531,7.22570061035,1.0,0.0,0.0,0.0,1.0,0.0,0.0,0.0,1.0
1489585213624156440,474,1489585213620123321,,-3.45736289024,-4.5457649231,95.0311355591,0.00125900004059,1.0,0.0,0.0,0.0,1.0,0.0,0.0,0.0,1.0,22.682926178,-22.1951236725,-23.0487823486,1.0,0.0,0.0,0.0,1.0,0.0,0.0,0.0,1.0,0.967257470703,0.229843359375,7.01979926758,1.0,0.0,0.0,0.0,1.0,0.0,0.0,0.0,1.0
1489585213644623440,475,1489585213641486934,,-4.01419115067,-3.86769127846,94.5380325317,0.00108700001147,1.0,0.0,0.0,0.0,1.0,0.0,0.0,0.0,1.0,22.9268302917,-19.5731716156,-24.5121955872,1.0,0.0,0.0,0.0,1.0,0.0,0.0,0.0,1.0,1.22583125,0.641646044922,6.68939943848,1.0,0.0,0.0,0.0,1.0,0.0,0.0,0.0,1.0
1489585213669216892,476,1489585213662298621,,-4.49596977234,-3.17250227928,93.9939956665,0.00118999998085,1.0,0.0,0.0,0.0,1.0,0.0,0.0,0.0,1.0,21.0365848541,-13.7804880142,-27.3780498505,1.0,0.0,0.0,0.0,1.0,0.0,0.0,0.0,1.0,1.48919343262,0.703895288086,6.90487758789,1.0,0.0,0.0,0.0,1.0,0.0,0.0,0.0,1.0
1489585213686776969,477,1489585213683337339,,-4.83256816864,-2.51075530052,93.4119415283,0.00116800004616,1.0,0.0,0.0,0.0,1.0,0.0,0.0,0.0,1.0,18.4146347046,-5.42682933807,-25.5487804413,1.0,0.0,0.0,0.0,1.0,0.0,0.0,0.0,1.0,1.46525141602,0.794874951172,6.79474431152,1.0,0.0,0.0,0.0,1.0,0.0,0.0,0.0,1.0
1489585213708441207,478,1489585213705085639,,-4.97006177902,-1.9504545927,92.8883209229,0.00123399996664,1.0,0.0,0.0,0.0,1.0,0.0,0.0,0.0,1.0,13.9634151459,3.04878044128,-20.6097564697,1.0,0.0,0.0,0.0,1.0,0.0,0.0,0.0,1.0,1.51313544922,0.842758984375,7.11077893066,1.0,0.0,0.0,0.0,1.0,0.0,0.0,0.0,1.0
1489585213729494508,479,1489585213725883888,,-4.909512043,-1.51009762287,92.5011825562,0.00116099999286,1.0,0.0,0.0,0.0,1.0,0.0,0.0,0.0,1.0,10.548781395,10.3048782349,-14.8170728683,1.0,0.0,0.0,0.0,1.0,0.0,0.0,0.0,1.0,1.47003981934,0.957680664062,7.60877287598,1.0,0.0,0.0,0.0,1.0,0.0,0.0,0.0,1.0
1489585213750326091,480,1489585213746339743,,-4.71593666077,-1.13435733318,92.223449707,0.00122400000691,1.0,0.0,0.0,0.0,1.0,0.0,0.0,0.0,1.0,8.23170757294,14.6341466904,-9.87804889679,1.0,0.0,0.0,0.0,1.0,0.0,0.0,0.0,1.0,1.5083470459,1.02471831055,8.39407043599,1.0,0.0,0.0,0.0,1.0,0.0,0.0,0.0,1.0
1489585213771555277,481,1489585213767606169,,-4.41739177704,-0.823376476765,92.0179901123,0.00126299995463,1.0,0.0,0.0,0.0,1.0,0.0,0.0,0.0,1.0,4.87804889679,19.4512195587,-7.43902492523,1.0,0.0,0.0,0.0,1.0,0.0,0.0,0.0,1.0,1.74776721191,1.13485158691,9.53371159526,1.0,0.0,0.0,0.0,1.0,0.0,0.0,0.0,1.0
1489585213791249414,482,1489585213788583949,,-4.00325870514,-0.629606425762,91.835395813,0.00109599996358,1.0,0.0,0.0,0.0,1.0,0.0,0.0,0.0,1.0,-0.243902444839,27.0121955872,-7.86585378647,1.0,0.0,0.0,0.0,1.0,0.0,0.0,0.0,1.0,1.87705410156,0.871489404297,10.5823713379,1.0,0.0,0.0,0.0,1.0,0.0,0.0,0.0,1.0
1489585213814445003,483,1489585213809225428,,-3.40815901756,-0.614109098911,91.6306533813,0.00112200004514,1.0,0.0,0.0,0.0,1.0,0.0,0.0,0.0,1.0,-4.57317066193,32.682926178,-10.2439022064,1.0,0.0,0.0,0.0,1.0,0.0,0.0,0.0,1.0,1.00077629395,0.167594116211,11.3485158691,1.0,0.0,0.0,0.0,1.0,0.0,0.0,0.0,1.0
1489585213835771742,484,1489585213829871074,,-2.69104790688,-0.746777057648,91.3608703613,0.0010450000409,1.0,0.0,0.0,0.0,1.0,0.0,0.0,0.0,1.0,-7.01219511032,27.5609760284,-14.3902444839,1.0,0.0,0.0,0.0,1.0,0.0,0.0,0.0,1.0,-0.215478149414,-0.593762048251,11.7315881348,1.0,0.0,0.0,0.0,1.0,0.0,0.0,0.0,1.0
1489585213854922390,485,1489585213850919531,,-2.14824533463,-0.958193182945,91.0104293823,0.0010890000267,1.0,0.0,0.0,0.0,1.0,0.0,0.0,0.0,1.0,-7.86585378647,12.8048782349,-17.317073822,1.0,0.0,0.0,0.0,1.0,0.0,0.0,0.0,1.0,-0.392649072266,-0.909796630859,12.4785790527,1.0,0.0,0.0,0.0,1.0,0.0,0.0,0.0,1.0
1489585213876941991,486,1489585213872147572,,-1.94253110886,-1.18802750111,90.630531311,0.00145900005009,1.0,0.0,0.0,0.0,1.0,0.0,0.0,0.0,1.0,-8.17073154449,-0.426829278469,-17.9878044128,1.0,0.0,0.0,0.0,1.0,0.0,0.0,0.0,1.0,0.167594116211,-0.991199487305,12.8329208984,1.0,0.0,0.0,0.0,1.0,0.0,0.0,0.0,1.0
1489585213895684619,487,1489585213892802176,,-1.95617592335,-1.44347608089,90.2765731812,0.00128500000574,1.0,0.0,0.0,0.0,1.0,0.0,0.0,0.0,1.0,-9.51219558716,-6.52439069748,-15.9146347046,1.0,0.0,0.0,0.0,1.0,0.0,0.0,0.0,1.0,0.229843359375,-1.27850368652,13.0148802246,1.0,0.0,0.0,0.0,1.0,0.0,0.0,0.0,1.0
1489585213917217451,488,1489585213913908706,,-2.11227631569,-1.73384714127,89.9748458862,0.00108199997339,1.0,0.0,0.0,0.0,1.0,0.0,0.0,0.0,1.0,-13.5365858078,-11.4634151459,-12.3170728683,1.0,0.0,0.0,0.0,1.0,0.0,0.0,0.0,1.0,1.09175595703,-0.598550451572,13.46977854,1.0,0.0,0.0,0.0,1.0,0.0,0.0,0.0,1.0
1489585213937294504,489,1489585213934613153,,-2.3857216835,-2.08986186981,89.7666854858,0.00154299999122,1.0,0.0,0.0,0.0,1.0,0.0,0.0,0.0,1.0,-20.4878044128,-7.98780536652,-7.86585378647,1.0,0.0,0.0,0.0,1.0,0.0,0.0,0.0,1.0,2.17393510742,-0.531512805087,13.49850896,1.0,0.0,0.0,0.0,1.0,0.0,0.0,0.0,1.0
1489585213957629629,490,1489585213955367341,,-2.53379321098,-2.61825108528,89.642829895,0.00187899998855,1.0,0.0,0.0,0.0,1.0,0.0,0.0,0.0,1.0,-27.4390258789,-0.792682945728,-4.57317066193,1.0,0.0,0.0,0.0,1.0,0.0,0.0,0.0,1.0,1.69509477539,-1.00077629395,13.0627642578,1.0,0.0,0.0,0.0,1.0,0.0,0.0,0.0,1.0
1489585213979775116,491,1489585213977195328,,-2.58989095688,-3.27418446541,89.533821106,0.00150200002827,1.0,0.0,0.0,0.0,1.0,0.0,0.0,0.0,1.0,-28.0487804413,-6.89024400711,-6.58536624908,1.0,0.0,0.0,0.0,1.0,0.0,0.0,0.0,1.0,0.723048901367,-1.56580788574,12.138602417,1.0,0.0,0.0,0.0,1.0,0.0,0.0,0.0,1.0
1489585214000656855,492,1489585213998345192,,-2.86727595329,-3.91939687729,89.3503341675,0.00176200002898,1.0,0.0,0.0,0.0,1.0,0.0,0.0,0.0,1.0,-24.2073173523,-21.7073173523,-12.0731716156,1.0,0.0,0.0,0.0,1.0,0.0,0.0,0.0,1.0,0.881066210937,-1.61848032227,11.7459533447,1.0,0.0,0.0,0.0,1.0,0.0,0.0,0.0,1.0
1489585214025657285,493,1489585214019233389,,-3.50673437119,-4.44963884354,89.0627288818,0.00170599995181,1.0,0.0,0.0,0.0,1.0,0.0,0.0,0.0,1.0,-20.3048782349,-27.9878063202,-17.2560977936,1.0,0.0,0.0,0.0,1.0,0.0,0.0,0.0,1.0,2.25533796387,-1.38863696289,11.2240173828,1.0,0.0,0.0,0.0,1.0,0.0,0.0,0.0,1.0
1489585214042969186,494,1489585214040578877,,-4.22057104111,-4.899061203,88.7057495117,0.00107999995816,1.0,0.0,0.0,0.0,1.0,0.0,0.0,0.0,1.0,-18.9024391174,-19.0243911743,-18.2926826477,1.0,0.0,0.0,0.0,1.0,0.0,0.0,0.0,1.0,3.13161577148,-1.45567460937,11.0947304932,1.0,0.0,0.0,0.0,1.0,0.0,0.0,0.0,1.0
1489585214063916758,495,1489585214061788376,,-4.67820978165,-5.32411003113,88.3753433228,0.00130600004923,1.0,0.0,0.0,0.0,1.0,0.0,0.0,0.0,1.0,-17.7439022064,-2.92682933807,-13.9634151459,1.0,0.0,0.0,0.0,1.0,0.0,0.0,0.0,1.0,3.37582434082,-1.46525141602,10.5105452881,1.0,0.0,0.0,0.0,1.0,0.0,0.0,0.0,1.0
1489585214085008237,496,1489585214082495376,,-4.77983522415,-5.73916530609,88.183921814,0.0011340000201,1.0,0.0,0.0,0.0,1.0,0.0,0.0,0.0,1.0,-17.7439022064,13.7804880142,-3.90243911743,1.0,0.0,0.0,0.0,1.0,0.0,0.0,0.0,1.0,3.34230551758,-1.56101948242,10.1897222656,1.0,0.0,0.0,0.0,1.0,0.0,0.0,0.0,1.0
1489585214105844351,497,1489585214102725397,,-4.5179400444,-6.16050481796,88.1570892334,0.00136999995448,1.0,0.0,0.0,0.0,1.0,0.0,0.0,0.0,1.0,-16.6463413239,29.2073173523,4.87804889679,1.0,0.0,0.0,0.0,1.0,0.0,0.0,0.0,1.0,2.7820623291,-1.58974990234,9.52413478862,1.0,0.0,0.0,0.0,1.0,0.0,0.0,0.0,1.0
1489585214126841194,498,1489585214124340781,,-3.90753722191,-6.5509428978,88.2141876221,0.00121200003196,1.0,0.0,0.0,0.0,1.0,0.0,0.0,0.0,1.0,-11.7073173523,37.5,7.13414621353,1.0,0.0,0.0,0.0,1.0,0.0,0.0,0.0,1.0,1.58496149902,-1.5562310791,8.59518454448,1.0,0.0,0.0,0.0,1.0,0.0,0.0,0.0,1.0
1489585214148512515,499,1489585214146217831,,-3.16772866249,-6.79311323166,88.2045822144,0.00116300000809,1.0,0.0,0.0,0.0,1.0,0.0,0.0,0.0,1.0,-3.90243911743,33.0487823486,0.18292683363,1.0,0.0,0.0,0.0,1.0,0.0,0.0,0.0,1.0,0.861912597656,-1.34075292969,7.87692346191,1.0,0.0,0.0,0.0,1.0,0.0,0.0,0.0,1.0
1489585214170414148,500,1489585214167758214,,-2.58412742615,-6.79445457458,87.9796829224,0.00152299995534,1.0,0.0,0.0,0.0,1.0,0.0,0.0,0.0,1.0,5.67073154449,23.475610733,-13.1097564697,1.0,0.0,0.0,0.0,1.0,0.0,0.0,0.0,1.0,0.641646044922,-1.04387185076,7.39808312988,1.0,0.0,0.0,0.0,1.0,0.0,0.0,0.0,1.0
1489585214191227137,501,1489585214188650474,,-2.23153710365,-6.58428525925,87.4947662354,0.00118200003635,1.0,0.0,0.0,0.0,1.0,0.0,0.0,0.0,1.0,14.0243902206,15.0609760284,-26.0975627899,1.0,0.0,0.0,0.0,1.0,0.0,0.0,0.0,1.0,0.507570751953,-0.857124194336,7.1203557373,1.0,0.0,0.0,0.0,1.0,0.0,0.0,0.0,1.0
1489585214211461169,502,1489585214209219766,,-2.0822789669,-6.19832420349,86.8296203613,0.00127000000793,1.0,0.0,0.0,0.0,1.0,0.0,0.0,0.0,1.0,20.6707324982,8.23170757294,-34.1463432312,1.0,0.0,0.0,0.0,1.0,0.0,0.0,0.0,1.0,0.732625708008,-0.632069238281,6.99106884766,1.0,0.0,0.0,0.0,1.0,0.0,0.0,0.0,1.0
1489585214233797280,503,1489585214230308379,,-2.08237481117,-5.65076971054,86.0792541504,0.00127100001555,1.0,0.0,0.0,0.0,1.0,0.0,0.0,0.0,1.0,24.3292694092,4.39024400711,-33.5365867615,1.0,0.0,0.0,0.0,1.0,0.0,0.0,0.0,1.0,1.04387185076,-0.330399829102,7.18260498047,1.0,0.0,0.0,0.0,1.0,0.0,0.0,0.0,1.0
1489585214253458865,504,1489585214250478036,,-2.16660666466,-5.04253959656,85.4538345337,0.00124999997206,1.0,0.0,0.0,0.0,1.0,0.0,0.0,0.0,1.0,24.3902435303,5.18292713165,-25.3658542633,1.0,0.0,0.0,0.0,1.0,0.0,0.0,0.0,1.0,1.56580788574,0.100556469727,7.34062229004,1.0,0.0,0.0,0.0,1.0,0.0,0.0,0.0,1.0
1489585214275467321,505,1489585214271590816,,-2.2009935379,-4.43534469604,85.0249099731,0.00155799998902,1.0,0.0,0.0,0.0,1.0,0.0,0.0,0.0,1.0,21.7073173523,10.0609760284,-14.3902444839,1.0,0.0,0.0,0.0,1.0,0.0,0.0,0.0,1.0,1.65199914551,0.354341845703,7.47948598633,1.0,0.0,0.0,0.0,1.0,0.0,0.0,0.0,1.0
1489585214294877864,506,1489585214291888338,,-2.11227941513,-3.87060666084,84.8061523438,0.00118699995801,1.0,0.0,0.0,0.0,1.0,0.0,0.0,0.0,1.0,16.8292694092,15.4878053665,-4.75609779358,1.0,0.0,0.0,0.0,1.0,0.0,0.0,0.0,1.0,1.74776721191,0.732625708008,7.84819304199,1.0,0.0,0.0,0.0,1.0,0.0,0.0,0.0,1.0
1489585214317159809,507,1489585214314483772,,-1.88290297985,-3.36551904678,84.7482757568,0.00208600005135,1.0,0.0,0.0,0.0,1.0,0.0,0.0,0.0,1.0,10.0,21.6463432312,1.70731711388,1.0,0.0,0.0,0.0,1.0,0.0,0.0,0.0,1.0,1.89141931152,1.10612116699,8.2743609375,1.0,0.0,0.0,0.0,1.0,0.0,0.0,0.0,1.0
1489585214338785297,508,1489585214335693687,,-1.50358021259,-3.02316665649,84.7637939453,0.00144100002944,1.0,0.0,0.0,0.0,1.0,0.0,0.0,0.0,1.0,4.45121955872,26.2804889679,2.74390244484,1.0,0.0,0.0,0.0,1.0,0.0,0.0,0.0,1.0,1.43173259277,0.967257470703,9.2655604248,1.0,0.0,0.0,0.0,1.0,0.0,0.0,0.0,1.0
1489585214365370673,509,1489585214358105320,,-0.992052257061,-2.8233628273,84.7719573975,0.00172800000291,1.0,0.0,0.0,0.0,1.0,0.0,0.0,0.0,1.0,0.975609779358,24.2073173523,1.40243899822,1.0,0.0,0.0,0.0,1.0,0.0,0.0,0.0,1.0,0.790086547852,0.526724328702,9.76834277344,1.0,0.0,0.0,0.0,1.0,0.0,0.0,0.0,1.0
1489585214380796431,510,1489585214378427008,,-0.548307061195,-2.76219320297,84.7615585327,0.00141200004146,1.0,0.0,0.0,0.0,1.0,0.0,0.0,0.0,1.0,-2.25609779358,16.4024391174,0.487804889679,1.0,0.0,0.0,0.0,1.0,0.0,0.0,0.0,1.0,0.301669427446,0.124498486328,10.5105452881,1.0,0.0,0.0,0.0,1.0,0.0,0.0,0.0,1.0
1489585214402386086,511,1489585214399740048,,-0.267902970314,-2.81552886963,84.7263870239,0.0012309999438,1.0,0.0,0.0,0.0,1.0,0.0,0.0,0.0,1.0,-6.15853643417,5.85365867615,-2.19512200356,1.0,0.0,0.0,0.0,1.0,0.0,0.0,0.0,1.0,0.124498486328,-0.263362164351,11.1569797363,1.0,0.0,0.0,0.0,1.0,0.0,0.0,0.0,1.0
1489585214422193660,512,1489585214420022673,,-0.213824257255,-2.98589587212,84.6141967773,0.00115899997763,1.0,0.0,0.0,0.0,1.0,0.0,0.0,0.0,1.0,-10.3658542633,-2.74390244484,-7.56097555161,1.0,0.0,0.0,0.0,1.0,0.0,0.0,0.0,1.0,0.239420166016,-0.651222851562,11.7315881348,1.0,0.0,0.0,0.0,1.0,0.0,0.0,0.0,1.0
1489585214443963679,513,1489585214441362849,,-0.328044772148,-3.27666330338,84.3802642822,0.00112000002991,1.0,0.0,0.0,0.0,1.0,0.0,0.0,0.0,1.0,-14.2073173523,-6.82926845551,-13.2926826477,1.0,0.0,0.0,0.0,1.0,0.0,0.0,0.0,1.0,0.612915625,-1.00556469727,12.2056400635,1.0,0.0,0.0,0.0,1.0,0.0,0.0,0.0,1.0
1489585214464882709,514,1489585214462743129,,-0.497623741627,-3.65912055969,84.0598144531,0.00108199997339,1.0,0.0,0.0,0.0,1.0,0.0,0.0,0.0,1.0,-16.0365848541,-7.43902492523,-16.0975608826,1.0,0.0,0.0,0.0,1.0,0.0,0.0,0.0,1.0,0.579396801758,-1.54665427246,12.5743471191,1.0,0.0,0.0,0.0,1.0,0.0,0.0,0.0,1.0
1489585214486591114,515,1489585214483913461,,-0.639688789845,-4.11098146439,83.7229766846,0.00110300001688,1.0,0.0,0.0,0.0,1.0,0.0,0.0,0.0,1.0,-19.1463432312,-3.10975623131,-15.2439022064,1.0,0.0,0.0,0.0,1.0,0.0,0.0,0.0,1.0,0.962469067383,-1.65199914551,12.765883252,1.0,0.0,0.0,0.0,1.0,0.0,0.0,0.0,1.0
1489585214506531604,516,1489585214504271243,,-0.715320587158,-4.58467531204,83.4514541626,0.00119900004938,1.0,0.0,0.0,0.0,1.0,0.0,0.0,0.0,1.0,-23.475610733,4.57317066193,-10.4268293381,1.0,0.0,0.0,0.0,1.0,0.0,0.0,0.0,1.0,1.86747729492,-1.13485158691,13.1681091309,1.0,0.0,0.0,0.0,1.0,0.0,0.0,0.0,1.0
1489585214528459175,517,1489585214525674908,,-0.582703113556,-5.16224002838,83.2739715576,0.00109300005715,1.0,0.0,0.0,0.0,1.0,0.0,0.0,0.0,1.0,-29.5731697083,19.2073173523,-3.41463422775,1.0,0.0,0.0,0.0,1.0,0.0,0.0,0.0,1.0,1.93930334473,-1.22104284668,13.3021844238,1.0,0.0,0.0,0.0,1.0,0.0,0.0,0.0,1.0
1489585214550033933,518,1489585214547894249,,-0.125952839851,-5.88254833221,83.2288818359,0.00176699995063,1.0,0.0,0.0,0.0,1.0,0.0,0.0,0.0,1.0,-31.4634151459,23.475610733,3.65853667259,1.0,0.0,0.0,0.0,1.0,0.0,0.0,0.0,1.0,0.569819995117,-1.76213242187,12.8424977051,1.0,0.0,0.0,0.0,1.0,0.0,0.0,0.0,1.0
1489585214574000199,519,1489585214568876561,,0.310799896717,-6.56864643097,83.2737808228,0.00123499997426,1.0,0.0,0.0,0.0,1.0,0.0,0.0,0.0,1.0,-27.1341457367,14.2073173523,4.75609779358,1.0,0.0,0.0,0.0,1.0,0.0,0.0,0.0,1.0,0.181959326172,-2.00634099121,12.1194488037,1.0,0.0,0.0,0.0,1.0,0.0,0.0,0.0,1.0
1489585214592845014,520,1489585214589415592,,0.535467743874,-7.1347284317,83.3050003052,0.00129599997308,1.0,0.0,0.0,0.0,1.0,0.0,0.0,0.0,1.0,-20.8536586761,7.43902492523,1.70731711388,1.0,0.0,0.0,0.0,1.0,0.0,0.0,0.0,1.0,0.545877978516,-2.33674067418,12.2152168701,1.0,0.0,0.0,0.0,1.0,0.0,0.0,0.0,1.0
1489585214613101598,521,1489585214610573372,,0.67555552721,-7.603328228,83.2898712158,0.00105700001586,1.0,0.0,0.0,0.0,1.0,0.0,0.0,0.0,1.0,-14.6951217651,7.50000047684,0.670731723309,1.0,0.0,0.0,0.0,1.0,0.0,0.0,0.0,1.0,0.517147558594,-2.77727392578,11.9614314941,1.0,0.0,0.0,0.0,1.0,0.0,0.0,0.0,1.0
1489585214634652450,522,1489585214631732507,,0.850930690765,-7.97811460495,83.3183822632,0.00106899999082,1.0,0.0,0.0,0.0,1.0,0.0,0.0,0.0,1.0,-9.20731735229,8.78048801422,5.18292713165,1.0,0.0,0.0,0.0,1.0,0.0,0.0,0.0,1.0,0.277727392578,-2.89698400879,11.5544172119,1.0,0.0,0.0,0.0,1.0,0.0,0.0,0.0,1.0
1489585214657283666,523,1489585214653382161,,1.08539581299,-8.25016403198,83.4580993652,0.00120199995581,1.0,0.0,0.0,0.0,1.0,0.0,0.0,0.0,1.0,-3.29268312454,8.96341514587,11.2804880142,1.0,0.0,0.0,0.0,1.0,0.0,0.0,0.0,1.0,0.129286889648,-2.86825358887,11.1138841064,1.0,0.0,0.0,0.0,1.0,0.0,0.0,0.0,1.0
1489585214677550093,524,1489585214675311347,,1.34279382229,-8.38667869568,83.6964569092,0.00129899999592,1.0,0.0,0.0,0.0,1.0,0.0,0.0,0.0,1.0,2.80487799644,8.65853691101,14.7560987473,1.0,0.0,0.0,0.0,1.0,0.0,0.0,0.0,1.0,-0.0814028564453,-2.77248552246,10.3956236084,1.0,0.0,0.0,0.0,1.0,0.0,0.0,0.0,1.0
1489585214698538186,525,1489585214696060950,,1.59905946255,-8.38613128662,83.9888763428,0.00137600000016,1.0,0.0,0.0,0.0,1.0,0.0,0.0,0.0,1.0,9.20731735229,4.63414621353,16.4634151459,1.0,0.0,0.0,0.0,1.0,0.0,0.0,0.0,1.0,-0.555454785156,-2.50912333984,9.61511445171,1.0,0.0,0.0,0.0,1.0,0.0,0.0,0.0,1.0
1489585214719366696,526,1489585214716680190,,1.7190233469,-8.21832275391,84.2908096313,0.00123499997426,1.0,0.0,0.0,0.0,1.0,0.0,0.0,0.0,1.0,15.3048791885,-5.36585378647,14.0853662491,1.0,0.0,0.0,0.0,1.0,0.0,0.0,0.0,1.0,-0.478840332031,-1.64721074219,8.9351605957,1.0,0.0,0.0,0.0,1.0,0.0,0.0,0.0,1.0
1489585214739882811,527,1489585214737412137,,1.5806940794,-7.86351299286,84.5448989868,0.00177500001155,1.0,0.0,0.0,0.0,1.0,0.0,0.0,0.0,1.0,19.5121955872,-15.7317075729,8.90243911743,1.0,0.0,0.0,0.0,1.0,0.0,0.0,0.0,1.0,0.119710083008,-0.833182177734,8.2743609375,1.0,0.0,0.0,0.0,1.0,0.0,0.0,0.0,1.0
1489585214761092466,528,1489585214758704917,,1.12740397453,-7.32561922073,84.7086868286,0.00166599999648,1.0,0.0,0.0,0.0,1.0,0.0,0.0,0.0,1.0,20.3048782349,-21.8902435303,2.19512200356,1.0,0.0,0.0,0.0,1.0,0.0,0.0,0.0,1.0,0.699106884766,-0.210689746094,7.80509741211,1.0,0.0,0.0,0.0,1.0,0.0,0.0,0.0,1.0
1489585214782305454,529,1489585214779267178,,0.552420377731,-6.75681734085,84.7287826538,0.00113800005056,1.0,0.0,0.0,0.0,1.0,0.0,0.0,0.0,1.0,19.6951236725,-23.7804889679,-3.90243911743,1.0,0.0,0.0,0.0,1.0,0.0,0.0,0.0,1.0,0.885854614258,0.0909796630859,7.34541069336,1.0,0.0,0.0,0.0,1.0,0.0,0.0,0.0,1.0
1489585214802360580,530,1489585214800436051,,-0.077821277082,-6.17637968063,84.635848999,0.00118499994278,1.0,0.0,0.0,0.0,1.0,0.0,0.0,0.0,1.0,19.1463432312,-23.8414649963,-8.84146404266,1.0,0.0,0.0,0.0,1.0,0.0,0.0,0.0,1.0,1.13963999023,0.248996972656,7.12993254395,1.0,0.0,0.0,0.0,1.0,0.0,0.0,0.0,1.0
1489585214823191173,531,1489585214820988781,,-0.722317814827,-5.60537815094,84.4559936523,0.0012150000548,1.0,0.0,0.0,0.0,1.0,0.0,0.0,0.0,1.0,18.3536586761,-20.8536586761,-11.8902444839,1.0,0.0,0.0,0.0,1.0,0.0,0.0,0.0,1.0,1.37906015625,0.344765039063,6.81868632812,1.0,0.0,0.0,0.0,1.0,0.0,0.0,0.0,1.0
1489585214843840881,532,1489585214841681978,,-1.28267431259,-5.04895448685,84.2182846069,0.00112499995157,1.0,0.0,0.0,0.0,1.0,0.0,0.0,0.0,1.0,17.0121955872,-13.5975618362,-12.7439022064,1.0,0.0,0.0,0.0,1.0,0.0,0.0,0.0,1.0,1.56101948242,0.541089611728,6.7660138916,1.0,0.0,0.0,0.0,1.0,0.0,0.0,0.0,1.0
1489585214864628662,533,1489585214862456894,,-1.66217446327,-4.54515457153,83.9822387695,0.00133200001437,1.0,0.0,0.0,0.0,1.0,0.0,0.0,0.0,1.0,14.7560987473,-3.35365867615,-10.0,1.0,0.0,0.0,0.0,1.0,0.0,0.0,0.0,1.0,1.78607443848,0.584185168546,7.14908615723,1.0,0.0,0.0,0.0,1.0,0.0,0.0,0.0,1.0
1489585214886339514,534,1489585214883836185,,-1.80262207985,-4.10501146317,83.7986984253,0.00114299997222,1.0,0.0,0.0,0.0,1.0,0.0,0.0,0.0,1.0,11.9512195587,8.23170757294,-5.54878091812,1.0,0.0,0.0,0.0,1.0,0.0,0.0,0.0,1.0,1.82438166504,0.344765039063,7.6135612793,1.0,0.0,0.0,0.0,1.0,0.0,0.0,0.0,1.0
1489585214907790419,535,1489585214904708809,,-1.68570554256,-3.73566246033,83.6973114014,0.00106899999082,1.0,0.0,0.0,0.0,1.0,0.0,0.0,0.0,1.0,9.81707286835,17.8048782349,-1.76829278469,1.0,0.0,0.0,0.0,1.0,0.0,0.0,0.0,1.0,1.7908628418,0.497993945312,8.15943925781,1.0,0.0,0.0,0.0,1.0,0.0,0.0,0.0,1.0
1489585214928102523,536,1489585214925136955,,-1.39508652687,-3.40329265594,83.6268692017,0.00105900003109,1.0,0.0,0.0,0.0,1.0,0.0,0.0,0.0,1.0,9.69512176514,23.7195129395,-1.95121955872,1.0,0.0,0.0,0.0,1.0,0.0,0.0,0.0,1.0,2.67192905273,0.248996972656,8.35576320942,1.0,0.0,0.0,0.0,1.0,0.0,0.0,0.0,1.0
1489585214948717023,537,1489585214945879423,,-0.997280359268,-3.07036566734,83.499382019,0.00115999998525,1.0,0.0,0.0,0.0,1.0,0.0,0.0,0.0,1.0,10.9756097794,22.9268302917,-6.95121955872,1.0,0.0,0.0,0.0,1.0,0.0,0.0,0.0,1.0,1.17794714373,0.411802685547,9.74440075684,1.0,0.0,0.0,0.0,1.0,0.0,0.0,0.0,1.0
1489585214972972820,538,1489585214967481890,,-0.604552090168,-2.71803760529,83.2206573486,0.00129299995024,1.0,0.0,0.0,0.0,1.0,0.0,0.0,0.0,1.0,13.048781395,19.7560977936,-14.8170728683,1.0,0.0,0.0,0.0,1.0,0.0,0.0,0.0,1.0,1.09654436035,0.0622492431641,10.6158901611,1.0,0.0,0.0,0.0,1.0,0.0,0.0,0.0,1.0
1489585214990164616,539,1489585214988067484,,-0.252396255732,-2.41555452347,82.8190078735,0.00126599997748,1.0,0.0,0.0,0.0,1.0,0.0,0.0,0.0,1.0,11.2804880142,22.5609760284,-20.0,1.0,0.0,0.0,0.0,1.0,0.0,0.0,0.0,1.0,1.26413847656,-0.239420166016,11.3724578857,1.0,0.0,0.0,0.0,1.0,0.0,0.0,0.0,1.0
1489585215012674269,540,1489585215009339587,,0.229362949729,-2.23635649681,82.3499984741,0.00116400001571,1.0,0.0,0.0,0.0,1.0,0.0,0.0,0.0,1.0,5.06097555161,28.1097564697,-20.9146347046,1.0,0.0,0.0,0.0,1.0,0.0,0.0,0.0,1.0,1.58974990234,-0.814028564453,13.0483990479,1.0,0.0,0.0,0.0,1.0,0.0,0.0,0.0,1.0
1489585215032268719,541,1489585215029991691,,0.851144313812,-2.24181485176,81.9143371582,0.00110899994615,1.0,0.0,0.0,0.0,1.0,0.0,0.0,0.0,1.0,-2.01219511032,29.4512195587,-19.0243911743,1.0,0.0,0.0,0.0,1.0,0.0,0.0,0.0,1.0,-0.162805712891,-1.09654436035,12.7898252686,1.0,0.0,0.0,0.0,1.0,0.0,0.0,0.0,1.0
1489585215053161343,542,1489585215050901867,,1.40699088573,-2.42077088356,81.5034942627,0.00113800005056,1.0,0.0,0.0,0.0,1.0,0.0,0.0,0.0,1.0,-7.56097555161,17.9268302917,-18.9634151459,1.0,0.0,0.0,0.0,1.0,0.0,0.0,0.0,1.0,-0.818816967773,-1.23061965332,12.8041904785,1.0,0.0,0.0,0.0,1.0,0.0,0.0,0.0,1.0
1489585215075683392,543,1489585215072415428,,1.72496974468,-2.74267673492,81.0604858398,0.00152299995534,1.0,0.0,0.0,0.0,1.0,0.0,0.0,0.0,1.0,-13.4756097794,9.81707286835,-20.1829280853,1.0,0.0,0.0,0.0,1.0,0.0,0.0,0.0,1.0,0.0287304199219,-1.34554133301,13.2590887939,1.0,0.0,0.0,0.0,1.0,0.0,0.0,0.0,1.0
1489585215096993047,544,1489585215093046491,,1.90681314468,-3.16187858582,80.6023101807,0.00119800004177,1.0,0.0,0.0,0.0,1.0,0.0,0.0,0.0,1.0,-18.9634151459,11.7682924271,-22.2560977936,1.0,0.0,0.0,0.0,1.0,0.0,0.0,0.0,1.0,0.100556469727,-1.37906015625,13.4602017334,1.0,0.0,0.0,0.0,1.0,0.0,0.0,0.0,1.0
1489585215116908954,545,1489585215114006927,,2.12256503105,-3.66148281097,80.0840835571,0.0012150000548,1.0,0.0,0.0,0.0,1.0,0.0,0.0,0.0,1.0,-20.3658542633,8.23170757294,-24.4512195587,1.0,0.0,0.0,0.0,1.0,0.0,0.0,0.0,1.0,-0.397437475586,-1.51792385254,13.005303418,1.0,0.0,0.0,0.0,1.0,0.0,0.0,0.0,1.0
1489585215138029130,546,1489585215135623144,,2.18679952621,-4.16702318192,79.5336380005,0.00176000001375,1.0,0.0,0.0,0.0,1.0,0.0,0.0,0.0,1.0,-17.0731716156,-3.04878044128,-24.0243911743,1.0,0.0,0.0,0.0,1.0,0.0,0.0,0.0,1.0,-0.287304199219,-1.53707746582,12.5647703125,1.0,0.0,0.0,0.0,1.0,0.0,0.0,0.0,1.0
1489585215161400605,547,1489585215157856340,,1.97289168835,-4.5729341507,79.0315628052,0.00257700006478,1.0,0.0,0.0,0.0,1.0,0.0,0.0,0.0,1.0,-11.9512195587,-12.6219520569,-21.5853652954,1.0,0.0,0.0,0.0,1.0,0.0,0.0,0.0,1.0,0.220266552734,-1.59453830566,11.899182251,1.0,0.0,0.0,0.0,1.0,0.0,0.0,0.0,1.0
1489585215181877970,548,1489585215179077974,,1.56641972065,-4.84076118469,78.621711731,0.00130100001115,1.0,0.0,0.0,0.0,1.0,0.0,0.0,0.0,1.0,-7.01219511032,-16.9512195587,-18.3536586761,1.0,0.0,0.0,0.0,1.0,0.0,0.0,0.0,1.0,0.833182177734,-1.42215578613,11.2096521729,1.0,0.0,0.0,0.0,1.0,0.0,0.0,0.0,1.0
1489585215202529657,549,1489585215199729922,,1.11896646023,-4.99725532532,78.3022842407,0.00151500001084,1.0,0.0,0.0,0.0,1.0,0.0,0.0,0.0,1.0,-2.74390244484,-15.0000009537,-14.6341466904,1.0,0.0,0.0,0.0,1.0,0.0,0.0,0.0,1.0,1.14921679688,-1.43652099609,10.6446205811,1.0,0.0,0.0,0.0,1.0,0.0,0.0,0.0,1.0
1489585215224083687,550,1489585215221336347,,0.694475829601,-5.06730651855,78.0639343262,0.00117699999828,1.0,0.0,0.0,0.0,1.0,0.0,0.0,0.0,1.0,-0.548780500889,-10.1829271317,-8.84146404266,1.0,0.0,0.0,0.0,1.0,0.0,0.0,0.0,1.0,1.68551796875,-1.00556469727,10.2615483154,1.0,0.0,0.0,0.0,1.0,0.0,0.0,0.0,1.0
1489585215246409590,551,1489585215242617877,,0.404967427254,-5.09419393539,77.9825439453,0.00104400003329,1.0,0.0,0.0,0.0,1.0,0.0,0.0,0.0,1.0,-2.13414645195,1.09756100178,1.03658533096,1.0,0.0,0.0,0.0,1.0,0.0,0.0,0.0,1.0,2.11168571813,-0.699106884766,10.1514150391,1.0,0.0,0.0,0.0,1.0,0.0,0.0,0.0,1.0
1489585215268258671,552,1489585215263790084,,0.401035904884,-5.1905002594,78.1177062988,0.00129599997308,1.0,0.0,0.0,0.0,1.0,0.0,0.0,0.0,1.0,-7.56097555161,13.841463089,12.7439022064,1.0,0.0,0.0,0.0,1.0,0.0,0.0,0.0,1.0,1.74297880859,-0.727837304687,9.90241806641,1.0,0.0,0.0,0.0,1.0,0.0,0.0,0.0,1.0
1489585215287896662,553,1489585215284427344,,0.681312263012,-5.39501857758,78.4413757324,0.00118400005158,1.0,0.0,0.0,0.0,1.0,0.0,0.0,0.0,1.0,-12.1951217651,18.1707305908,20.2439022064,1.0,0.0,0.0,0.0,1.0,0.0,0.0,0.0,1.0,0.732625708008,-0.751779321289,9.14106193848,1.0,0.0,0.0,0.0,1.0,0.0,0.0,0.0,1.0
1489585215308817776,554,1489585215306008718,,1.02421343327,-5.65223169327,78.8259811401,0.00124699994922,1.0,0.0,0.0,0.0,1.0,0.0,0.0,0.0,1.0,-12.2560977936,9.63414573669,17.9268302917,1.0,0.0,0.0,0.0,1.0,0.0,0.0,0.0,1.0,-0.0143652099609,-0.718260498047,8.31266757954,1.0,0.0,0.0,0.0,1.0,0.0,0.0,0.0,1.0
1489585215329339828,555,1489585215326569676,,1.13795852661,-5.85944986343,79.0788879395,0.00128299999051,1.0,0.0,0.0,0.0,1.0,0.0,0.0,0.0,1.0,-9.26829242706,-5.30487823486,7.80487823486,1.0,0.0,0.0,0.0,1.0,0.0,0.0,0.0,1.0,-0.248996972656,-0.574608398438,7.74284816895,1.0,0.0,0.0,0.0,1.0,0.0,0.0,0.0,1.0
1489585215350081880,556,1489585215347202665,,0.906449139118,-5.9711151123,79.098739624,0.00130300002638,1.0,0.0,0.0,0.0,1.0,0.0,0.0,0.0,1.0,-4.20731735229,-19.9390239716,-6.64634132385,1.0,0.0,0.0,0.0,1.0,0.0,0.0,0.0,1.0,-0.076614453125,-0.584185168546,7.22091220703,1.0,0.0,0.0,0.0,1.0,0.0,0.0,0.0,1.0
1489585215371236952,557,1489585215368498518,,0.275623530149,-5.93796014786,78.8049087524,0.00250800000504,1.0,0.0,0.0,0.0,1.0,0.0,0.0,0.0,1.0,2.31707310677,-31.7682914734,-20.3658542633,1.0,0.0,0.0,0.0,1.0,0.0,0.0,0.0,1.0,0.292092584273,-0.541089611728,6.85220515137,1.0,0.0,0.0,0.0,1.0,0.0,0.0,0.0,1.0
1489585215391492910,558,1489585215389242549,,-0.57035368681,-5.78693342209,78.3576965332,0.00118300004397,1.0,0.0,0.0,0.0,1.0,0.0,0.0,0.0,1.0,7.80487823486,-37.4390220642,-27.3780498505,1.0,0.0,0.0,0.0,1.0,0.0,0.0,0.0,1.0,0.895431420898,-0.430956298828,6.93360800781,1.0,0.0,0.0,0.0,1.0,0.0,0.0,0.0,1.0
1489585215411651838,559,1489585215409494810,,-1.54850637913,-5.51894569397,77.8707275391,0.00104200001806,1.0,0.0,0.0,0.0,1.0,0.0,0.0,0.0,1.0,11.4634151459,-35.9756088257,-25.1219520569,1.0,0.0,0.0,0.0,1.0,0.0,0.0,0.0,1.0,1.51313544922,-0.392649072266,7.26400783691,1.0,0.0,0.0,0.0,1.0,0.0,0.0,0.0,1.0
1489585215433115138,560,1489585215430529726,,-2.4452483654,-5.19255208969,77.481918335,0.0010300000431,1.0,0.0,0.0,0.0,1.0,0.0,0.0,0.0,1.0,13.2926826477,-27.3780498505,-16.4024391174,1.0,0.0,0.0,0.0,1.0,0.0,0.0,0.0,1.0,1.86747729492,-0.320823022461,7.22570061035,1.0,0.0,0.0,0.0,1.0,0.0,0.0,0.0,1.0
1489585215460254837,561,1489585215452764015,,-3.09284973145,-4.84797430038,77.30809021,0.000976999988779,1.0,0.0,0.0,0.0,1.0,0.0,0.0,0.0,1.0,13.9634151459,-15.3658533096,-3.53658556938,1.0,0.0,0.0,0.0,1.0,0.0,0.0,0.0,1.0,2.05422502441,-0.335188232422,7.47948598633,1.0,0.0,0.0,0.0,1.0,0.0,0.0,0.0,1.0
1489585215475430439,562,1489585215472643047,,-3.50740981102,-4.4756937027,77.3436813354,0.00113099999726,1.0,0.0,0.0,0.0,1.0,0.0,0.0,0.0,1.0,13.5975618362,-6.82926845551,6.15853643417,1.0,0.0,0.0,0.0,1.0,0.0,0.0,0.0,1.0,2.15957004359,0.0957680664062,8.00621035156,1.0,0.0,0.0,0.0,1.0,0.0,0.0,0.0,1.0
1489585215498869569,563,1489585215493678536,,-3.70984888077,-4.10534620285,77.5417480469,0.00153799995314,1.0,0.0,0.0,0.0,1.0,0.0,0.0,0.0,1.0,11.0365858078,3.65853667259,12.8048782349,1.0,0.0,0.0,0.0,1.0,0.0,0.0,0.0,1.0,2.40856701625,0.335188232422,8.76756647949,1.0,0.0,0.0,0.0,1.0,0.0,0.0,0.0,1.0
1489585215516795636,564,1489585215514109963,,-3.65376830101,-3.83027696609,77.806137085,0.00111499999184,1.0,0.0,0.0,0.0,1.0,0.0,0.0,0.0,1.0,6.09756088257,13.9634151459,15.0609760284,1.0,0.0,0.0,0.0,1.0,0.0,0.0,0.0,1.0,2.26012636719,0.411802685547,9.72045874023,1.0,0.0,0.0,0.0,1.0,0.0,0.0,0.0,1.0
1489585215539608049,565,1489585215536643053,,-3.35723209381,-3.69236683846,78.0790863037,0.00129599997308,1.0,0.0,0.0,0.0,1.0,0.0,0.0,0.0,1.0,-0.12195122242,21.9512195587,13.9634151459,1.0,0.0,0.0,0.0,1.0,0.0,0.0,0.0,1.0,1.85790048828,-0.105344873047,10.6829278076,1.0,0.0,0.0,0.0,1.0,0.0,0.0,0.0,1.0
1489585215560352132,566,1489585215557229532,,-2.89861822128,-3.72960948944,78.2956314087,0.0014230000088,1.0,0.0,0.0,0.0,1.0,0.0,0.0,0.0,1.0,-5.06097555161,20.4268302917,9.32926845551,1.0,0.0,0.0,0.0,1.0,0.0,0.0,0.0,1.0,0.981622680664,-0.588973571866,11.4586491455,1.0,0.0,0.0,0.0,1.0,0.0,0.0,0.0,1.0
1489585215579912467,567,1489585215577832991,,-2.48933696747,-3.91271424294,78.3977737427,0.00117800000589,1.0,0.0,0.0,0.0,1.0,0.0,0.0,0.0,1.0,-9.08536529541,15.3048791885,4.45121955872,1.0,0.0,0.0,0.0,1.0,0.0,0.0,0.0,1.0,0.675164868164,-1.08696755371,11.7076461182,1.0,0.0,0.0,0.0,1.0,0.0,0.0,0.0,1.0
1489585215600546498,568,1489585215598537542,,-2.21473097801,-4.17822742462,78.4289550781,0.00106299994513,1.0,0.0,0.0,0.0,1.0,0.0,0.0,0.0,1.0,-11.4024391174,7.01219511032,1.40243899822,1.0,0.0,0.0,0.0,1.0,0.0,0.0,0.0,1.0,0.555454785156,-1.42694418945,12.2487356934,1.0,0.0,0.0,0.0,1.0,0.0,0.0,0.0,1.0
1489585215621373758,569,1489585215619007042,,-2.14523458481,-4.47454118729,78.4214324951,0.0010229999898,1.0,0.0,0.0,0.0,1.0,0.0,0.0,0.0,1.0,-12.7439022064,-1.09756100178,-1.2195122242,1.0,0.0,0.0,0.0,1.0,0.0,0.0,0.0,1.0,1.01992990723,-1.36948334961,12.4785790527,1.0,0.0,0.0,0.0,1.0,0.0,0.0,0.0,1.0
1489585215641730133,570,1489585215639503678,,-2.19871997833,-4.80016469955,78.3625869751,0.00104000000283,1.0,0.0,0.0,0.0,1.0,0.0,0.0,0.0,1.0,-15.7926826477,2.13414645195,-2.37804889679,1.0,0.0,0.0,0.0,1.0,0.0,0.0,0.0,1.0,2.03985981445,-1.17315874041,13.2638771973,1.0,0.0,0.0,0.0,1.0,0.0,0.0,0.0,1.0
1489585215662701299,571,1489585215660370521,,-2.14821958542,-5.21716547012,78.343460083,0.00100599997677,1.0,0.0,0.0,0.0,1.0,0.0,0.0,0.0,1.0,-23.9634151459,12.8658542633,3.23170733452,1.0,0.0,0.0,0.0,1.0,0.0,0.0,0.0,1.0,2.66235224609,-0.952892260742,13.4458365234,1.0,0.0,0.0,0.0,1.0,0.0,0.0,0.0,1.0
1489585215683546788,572,1489585215681521687,,-1.83922410011,-5.82623052597,78.4453201294,0.00109499995597,1.0,0.0,0.0,0.0,1.0,0.0,0.0,0.0,1.0,-34.817073822,26.5853652954,9.87804889679,1.0,0.0,0.0,0.0,1.0,0.0,0.0,0.0,1.0,2.55221896973,-1.03908344744,13.7091987061,1.0,0.0,0.0,0.0,1.0,0.0,0.0,0.0,1.0
1489585215704843005,573,1489585215702418426,,-1.25533127785,-6.6259355545,78.5798873901,0.001007999992,1.0,0.0,0.0,0.0,1.0,0.0,0.0,0.0,1.0,-40.3048782349,32.1951217651,9.45121955872,1.0,0.0,0.0,0.0,1.0,0.0,0.0,0.0,1.0,1.35990654297,-1.55144267578,13.1872627441,1.0,0.0,0.0,0.0,1.0,0.0,0.0,0.0,1.0
1489585215726463285,574,1489585215724162767,,-0.608588337898,-7.5209145546,78.6197967529,0.00150100002065,1.0,0.0,0.0,0.0,1.0,0.0,0.0,0.0,1.0,-37.2560958862,24.6341457367,2.37804889679,1.0,0.0,0.0,0.0,1.0,0.0,0.0,0.0,1.0,0.383072265625,-2.17393510742,12.6749035889,1.0,0.0,0.0,0.0,1.0,0.0,0.0,0.0,1.0
1489585215747953408,575,1489585215745412110,,-0.188785910606,-8.28190803528,78.5249176025,0.000983000034466,1.0,0.0,0.0,0.0,1.0,0.0,0.0,0.0,1.0,-27.2560977936,11.8902444839,-4.39024400711,1.0,0.0,0.0,0.0,1.0,0.0,0.0,0.0,1.0,-0.0143652099609,-2.8299463623,12.1338140137,1.0,0.0,0.0,0.0,1.0,0.0,0.0,0.0,1.0
1489585215774067066,576,1489585215767005983,,-0.0152543736622,-8.8578748703,78.3616485596,0.00133100000676,1.0,0.0,0.0,0.0,1.0,0.0,0.0,0.0,1.0,-15.2439022064,4.39024400711,-6.0365858078,1.0,0.0,0.0,0.0,1.0,0.0,0.0,0.0,1.0,0.253785375977,-3.35667072754,11.9039706543,1.0,0.0,0.0,0.0,1.0,0.0,0.0,0.0,1.0
1489585215789354856,577,1489585215787283400,,0.0627199336886,-9.20225429535,78.2610092163,0.00104100001045,1.0,0.0,0.0,0.0,1.0,0.0,0.0,0.0,1.0,-6.09756088257,6.28048801422,-0.243902444839,1.0,0.0,0.0,0.0,1.0,0.0,0.0,0.0,1.0,0.756567724609,-3.37582434082,11.9518546875,1.0,0.0,0.0,0.0,1.0,0.0,0.0,0.0,1.0
1489585215809851647,578,1489585215807776911,,0.273828029633,-9.39459705353,78.3146743774,0.000985000049695,1.0,0.0,0.0,0.0,1.0,0.0,0.0,0.0,1.0,1.09756100178,12.9878053665,9.63414573669,1.0,0.0,0.0,0.0,1.0,0.0,0.0,0.0,1.0,0.268150604204,-3.49553442383,11.2814782227,1.0,0.0,0.0,0.0,1.0,0.0,0.0,0.0,1.0
1489585215830546355,579,1489585215828432296,,0.654783904552,-9.45303821564,78.5456390381,0.000972000008915,1.0,0.0,0.0,0.0,1.0,0.0,0.0,0.0,1.0,9.02439117432,11.8902444839,17.1951217651,1.0,0.0,0.0,0.0,1.0,0.0,0.0,0.0,1.0,-0.517147558594,-3.27047946777,10.4530844482,1.0,0.0,0.0,0.0,1.0,0.0,0.0,0.0,1.0
1489585215854131319,580,1489585215849828878,,0.97030121088,-9.33405399323,78.8880233765,0.000991999986582,1.0,0.0,0.0,0.0,1.0,0.0,0.0,0.0,1.0,16.341463089,0.365853667259,17.1951217651,1.0,0.0,0.0,0.0,1.0,0.0,0.0,0.0,1.0,-0.857124194336,-2.67671745605,9.55286520855,1.0,0.0,0.0,0.0,1.0,0.0,0.0,0.0,1.0
1489585215873489258,581,1489585215871256710,,0.981932163239,-9.03008556366,79.1934967041,0.00143299996853,1.0,0.0,0.0,0.0,1.0,0.0,0.0,0.0,1.0,21.5853652954,-15.3658533096,10.6097564697,1.0,0.0,0.0,0.0,1.0,0.0,0.0,0.0,1.0,-0.670376464844,-1.83395847168,8.66701059429,1.0,0.0,0.0,0.0,1.0,0.0,0.0,0.0,1.0
1489585215893687092,582,1489585215891470377,,0.615139961243,-8.58137989044,79.3848953247,0.00097499997355,1.0,0.0,0.0,0.0,1.0,0.0,0.0,0.0,1.0,24.5731716156,-29.0853672028,2.68292689323,1.0,0.0,0.0,0.0,1.0,0.0,0.0,0.0,1.0,-0.0335188255255,-1.16837033709,7.86255825195,1.0,0.0,0.0,0.0,1.0,0.0,0.0,0.0,1.0
1489585215915534351,583,1489585215911994148,,-0.0835498943925,-8.02628421783,79.4312744141,0.000974000024144,1.0,0.0,0.0,0.0,1.0,0.0,0.0,0.0,1.0,25.6097564697,-37.865852356,-6.34146356583,1.0,0.0,0.0,0.0,1.0,0.0,0.0,0.0,1.0,0.45489831543,-0.488417138672,7.42202514648,1.0,0.0,0.0,0.0,1.0,0.0,0.0,0.0,1.0
1489585215935782028,584,1489585215933230313,,-1.05352723598,-7.36419391632,79.3110580444,0.00114399997983,1.0,0.0,0.0,0.0,1.0,0.0,0.0,0.0,1.0,26.6463432312,-40.6707344055,-13.4756097794,1.0,0.0,0.0,0.0,1.0,0.0,0.0,0.0,1.0,2.00155258789,-0.435744702148,6.96712683105,1.0,0.0,0.0,0.0,1.0,0.0,0.0,0.0,1.0
1489585215957645693,585,1489585215953885490,,-2.08882927895,-6.68895483017,79.0440979004,0.00107999995816,1.0,0.0,0.0,0.0,1.0,0.0,0.0,0.0,1.0,24.4512195587,-36.2804908752,-18.7195110321,1.0,0.0,0.0,0.0,1.0,0.0,0.0,0.0,1.0,1.60890351563,-0.0335188255255,6.70855305176,1.0,0.0,0.0,0.0,1.0,0.0,0.0,0.0,1.0
1489585215977766026,586,1489585215975746186,,-3.03382897377,-6.00045919418,78.6741638184,0.00131800002418,1.0,0.0,0.0,0.0,1.0,0.0,0.0,0.0,1.0,23.658536911,-26.8902454376,-20.3658542633,1.0,0.0,0.0,0.0,1.0,0.0,0.0,0.0,1.0,1.71903679199,0.3064578125,6.39251843262,1.0,0.0,0.0,0.0,1.0,0.0,0.0,0.0,1.0
1489585215998673599,587,1489585215996025217,,-3.73620295525,-5.33616685867,78.3110580444,0.00127000000793,1.0,0.0,0.0,0.0,1.0,0.0,0.0,0.0,1.0,22.6219520569,-16.158536911,-16.7682933807,1.0,0.0,0.0,0.0,1.0,0.0,0.0,0.0,1.0,2.01591779785,0.349553442383,6.55053574219,1.0,0.0,0.0,0.0,1.0,0.0,0.0,0.0,1.0
1489585216019910389,588,1489585216018364767,,-4.15763664246,-4.71386098862,78.0340576172,0.00341199990362,1.0,0.0,0.0,0.0,1.0,0.0,0.0,0.0,1.0,19.0853652954,-2.13414645195,-9.08536529541,1.0,0.0,0.0,0.0,1.0,0.0,0.0,0.0,1.0,1.85311208496,0.426167895508,6.96712683105,1.0,0.0,0.0,0.0,1.0,0.0,0.0,0.0,1.0
1489585216041323690,589,1489585216038619840,,-4.25595998764,-4.17607879639,77.8904342651,0.00102199998219,1.0,0.0,0.0,0.0,1.0,0.0,0.0,0.0,1.0,15.2439022064,8.17073154449,-2.43902444839,1.0,0.0,0.0,0.0,1.0,0.0,0.0,0.0,1.0,1.7908628418,0.61770402832,7.56088884277,1.0,0.0,0.0,0.0,1.0,0.0,0.0,0.0,1.0
1489585216061832565,590,1489585216059523610,,-4.11274003983,-3.74590277672,77.8618392944,0.000982000026852,1.0,0.0,0.0,0.0,1.0,0.0,0.0,0.0,1.0,11.2804880142,14.8780498505,2.68292689323,1.0,0.0,0.0,0.0,1.0,0.0,0.0,0.0,1.0,1.47961662598,0.560243188477,8.13549724121,1.0,0.0,0.0,0.0,1.0,0.0,0.0,0.0,1.0
1489585216082329773,591,1489585216079982173,,-3.85106945038,-3.41669917107,77.8817367554,0.000972000008915,1.0,0.0,0.0,0.0,1.0,0.0,0.0,0.0,1.0,7.37804937363,14.5121955872,1.76829278469,1.0,0.0,0.0,0.0,1.0,0.0,0.0,0.0,1.0,1.28329208984,0.627280834961,9.16021555176,1.0,0.0,0.0,0.0,1.0,0.0,0.0,0.0,1.0
1489585216102662034,592,1489585216100517350,,-3.61981201172,-3.17034268379,77.7943344116,0.000962999998592,1.0,0.0,0.0,0.0,1.0,0.0,0.0,0.0,1.0,4.69512224197,10.1219511032,-7.62195110321,1.0,0.0,0.0,0.0,1.0,0.0,0.0,0.0,1.0,1.06781401349,0.488417138672,9.89762966309,1.0,0.0,0.0,0.0,1.0,0.0,0.0,0.0,1.0
1489585216123247159,593,1489585216121002839,,-3.48944044113,-3.00268673897,77.4717330933,0.000977999996394,1.0,0.0,0.0,0.0,1.0,0.0,0.0,0.0,1.0,2.31707310677,4.14634132385,-20.0609760284,1.0,0.0,0.0,0.0,1.0,0.0,0.0,0.0,1.0,0.972045874023,-0.0143652099609,10.778695874,1.0,0.0,0.0,0.0,1.0,0.0,0.0,0.0,1.0
1489585216144093012,594,1489585216142007859,,-3.47487258911,-2.91404175758,76.9331436157,0.000974000024144,1.0,0.0,0.0,0.0,1.0,0.0,0.0,0.0,1.0,-0.426829278469,0.12195122242,-27.317073822,1.0,0.0,0.0,0.0,1.0,0.0,0.0,0.0,1.0,1.20667770978,-0.359130249023,11.6406084717,1.0,0.0,0.0,0.0,1.0,0.0,0.0,0.0,1.0
1489585216165500844,595,1489585216163341785,,-3.51555395126,-2.95020294189,76.3308639526,0.000969999993686,1.0,0.0,0.0,0.0,1.0,0.0,0.0,0.0,1.0,-5.36585378647,1.2195122242,-26.8902454376,1.0,0.0,0.0,0.0,1.0,0.0,0.0,0.0,1.0,1.58496149902,-0.723048901367,12.2918313232,1.0,0.0,0.0,0.0,1.0,0.0,0.0,0.0,1.0
1489585216186082011,596,1489585216183849410,,-3.50594973564,-3.10820960999,75.806968689,0.00109300005715,1.0,0.0,0.0,0.0,1.0,0.0,0.0,0.0,1.0,-8.71951198578,2.25609779358,-23.1707324982,1.0,0.0,0.0,0.0,1.0,0.0,0.0,0.0,1.0,1.29286889648,-1.08217922346,12.8903817383,1.0,0.0,0.0,0.0,1.0,0.0,0.0,0.0,1.0
1489585216206953437,597,1489585216204772607,,-3.48796844482,-3.31354618073,75.3601608276,0.000980000011623,1.0,0.0,0.0,0.0,1.0,0.0,0.0,0.0,1.0,-7.98780536652,-1.09756100178,-19.7560977936,1.0,0.0,0.0,0.0,1.0,0.0,0.0,0.0,1.0,0.895431420898,-1.2976572998,12.6030775391,1.0,0.0,0.0,0.0,1.0,0.0,0.0,0.0,1.0
1489585216228385280,598,1489585216226282002,,-3.55696439743,-3.50191140175,74.9790725708,0.00132000003941,1.0,0.0,0.0,0.0,1.0,0.0,0.0,0.0,1.0,-8.78048801422,-2.86585378647,-16.4634151459,1.0,0.0,0.0,0.0,1.0,0.0,0.0,0.0,1.0,1.48919343262,-1.01035310059,13.0531874512,1.0,0.0,0.0,0.0,1.0,0.0,0.0,0.0,1.0
1489585216248615874,599,1489585216246519158,,-3.64824080467,-3.69724750519,74.6778793335,0.00111099996138,1.0,0.0,0.0,0.0,1.0,0.0,0.0,0.0,1.0,-12.6829271317,2.43902444839,-12.9878053665,1.0,0.0,0.0,0.0,1.0,0.0,0.0,0.0,1.0,2.39420180629,-0.579396801758,13.4266829102,1.0,0.0,0.0,0.0,1.0,0.0,0.0,0.0,1.0
1489585216270167195,600,1489585216267584334,,-3.56791901588,-3.99077987671,74.4082565308,0.00150699994992,1.0,0.0,0.0,0.0,1.0,0.0,0.0,0.0,1.0,-18.1707305908,15.4878053665,-10.8536586761,1.0,0.0,0.0,0.0,1.0,0.0,0.0,0.0,1.0,2.42293208008,-0.598550451572,13.3835872803,1.0,0.0,0.0,0.0,1.0,0.0,0.0,0.0,1.0
1489585216290228935,601,1489585216288181803,,-3.22909092903,-4.38789606094,74.1790237427,0.000975999981165,1.0,0.0,0.0,0.0,1.0,0.0,0.0,0.0,1.0,-20.0,20.0609760284,-8.04878044128,1.0,0.0,0.0,0.0,1.0,0.0,0.0,0.0,1.0,1.39342536621,-1.11090957031,12.9334773682,1.0,0.0,0.0,0.0,1.0,0.0,0.0,0.0,1.0
1489585216310940570,602,1489585216308860678,,-2.8490254879,-4.82341146469,73.9965362549,0.000974000024144,1.0,0.0,0.0,0.0,1.0,0.0,0.0,0.0,1.0,-18.5365848541,15.548781395,-6.82926845551,1.0,0.0,0.0,0.0,1.0,0.0,0.0,0.0,1.0,0.852335791016,-1.44609780273,12.3157733398,1.0,0.0,0.0,0.0,1.0,0.0,0.0,0.0,1.0
1489585216331734080,603,1489585216329541844,,-2.60222363472,-5.20899629593,73.8210983276,0.00104100001045,1.0,0.0,0.0,0.0,1.0,0.0,0.0,0.0,1.0,-13.658536911,8.17073154449,-8.29268264771,1.0,0.0,0.0,0.0,1.0,0.0,0.0,0.0,1.0,0.852335791016,-1.78607443848,11.6837041016,1.0,0.0,0.0,0.0,1.0,0.0,0.0,0.0,1.0
1489585216358906174,604,1489585216353463943,,-2.5160882473,-5.5066485405,73.5823898315,0.000969999993686,1.0,0.0,0.0,0.0,1.0,0.0,0.0,0.0,1.0,-7.56097555161,2.92682933807,-12.3170728683,1.0,0.0,0.0,0.0,1.0,0.0,0.0,0.0,1.0,0.967257470703,-1.87226569824,11.0372696533,1.0,0.0,0.0,0.0,1.0,0.0,0.0,0.0,1.0
1489585216376667501,605,1489585216371698655,,-2.55054974556,-5.66117238998,73.2971420288,0.00189800001681,1.0,0.0,0.0,0.0,1.0,0.0,0.0,0.0,1.0,-2.01219511032,-0.609756112099,-13.3536586761,1.0,0.0,0.0,0.0,1.0,0.0,0.0,0.0,1.0,1.28329208984,-1.71424838867,10.4818148682,1.0,0.0,0.0,0.0,1.0,0.0,0.0,0.0,1.0
1489585216395867160,606,1489585216392116228,,-2.65245366096,-5.71575498581,73.0584869385,0.00101100001484,1.0,0.0,0.0,0.0,1.0,0.0,0.0,0.0,1.0,0.243902444839,0.426829278469,-9.08536529541,1.0,0.0,0.0,0.0,1.0,0.0,0.0,0.0,1.0,1.80522805176,-1.39821376953,10.1466266357,1.0,0.0,0.0,0.0,1.0,0.0,0.0,0.0,1.0
1489585216419539207,607,1489585216412742446,,-2.7160089016,-5.74768877029,72.9585037231,0.00100499996915,1.0,0.0,0.0,0.0,1.0,0.0,0.0,0.0,1.0,-1.64634156227,6.28048801422,0.243902444839,1.0,0.0,0.0,0.0,1.0,0.0,0.0,0.0,1.0,1.99197578125,-0.991199487305,9.53849999858,1.0,0.0,0.0,0.0,1.0,0.0,0.0,0.0,1.0
1489585216436235015,608,1489585216433829393,,-2.62829685211,-5.83340120316,72.995300293,0.00111299997661,1.0,0.0,0.0,0.0,1.0,0.0,0.0,0.0,1.0,-4.51219558716,12.4390249252,4.93902444839,1.0,0.0,0.0,0.0,1.0,0.0,0.0,0.0,1.0,1.65678754883,-0.91458503418,8.90164177246,1.0,0.0,0.0,0.0,1.0,0.0,0.0,0.0,1.0
1489585216457386701,609,1489585216454902278,,-2.42111945152,-5.94562482834,73.0482177734,0.00107999995816,1.0,0.0,0.0,0.0,1.0,0.0,0.0,0.0,1.0,-4.14634132385,11.8292684555,2.43902444839,1.0,0.0,0.0,0.0,1.0,0.0,0.0,0.0,1.0,0.972045874023,-1.04866025408,8.07803640137,1.0,0.0,0.0,0.0,1.0,0.0,0.0,0.0,1.0
1489585216477932659,610,1489585216476212870,,-2.26398134232,-6.00431632996,72.9936294556,0.00113300001249,1.0,0.0,0.0,0.0,1.0,0.0,0.0,0.0,1.0,0.18292683363,3.65853667259,-5.06097555161,1.0,0.0,0.0,0.0,1.0,0.0,0.0,0.0,1.0,0.497993945312,-0.900219824219,7.35977590332,1.0,0.0,0.0,0.0,1.0,0.0,0.0,0.0,1.0
1489585216504834910,611,1489585216497203151,,-2.31749987602,-5.96881723404,72.7746887207,0.00239200005308,1.0,0.0,0.0,0.0,1.0,0.0,0.0,0.0,1.0,4.02439022064,-5.42682933807,-14.6951217651,1.0,0.0,0.0,0.0,1.0,0.0,0.0,0.0,1.0,0.61770402832,-0.737414111328,6.8138979248,1.0,0.0,0.0,0.0,1.0,0.0,0.0,0.0,1.0
1489585216520864677,612,1489585216518185358,,-2.59311461449,-5.83139419556,72.3903121948,0.00197399989702,1.0,0.0,0.0,0.0,1.0,0.0,0.0,0.0,1.0,7.01219511032,-11.7073173523,-21.9512195587,1.0,0.0,0.0,0.0,1.0,0.0,0.0,0.0,1.0,0.938527050781,-0.555454785156,6.59841977539,1.0,0.0,0.0,0.0,1.0,0.0,0.0,0.0,1.0
1489585216542904696,613,1489585216539561159,,-3.0311229229,-5.60084199905,71.9120483398,0.00141200004146,1.0,0.0,0.0,0.0,1.0,0.0,0.0,0.0,1.0,8.23170757294,-14.5121955872,-22.682926178,1.0,0.0,0.0,0.0,1.0,0.0,0.0,0.0,1.0,1.30244570312,-0.46447512207,6.76122548828,1.0,0.0,0.0,0.0,1.0,0.0,0.0,0.0,1.0
1489585216563576539,614,1489585216560158003,,-3.49607634544,-5.37906360626,71.5394058228,0.00117099995259,1.0,0.0,0.0,0.0,1.0,0.0,0.0,0.0,1.0,7.56097555161,-13.5365858078,-15.548781395,1.0,0.0,0.0,0.0,1.0,0.0,0.0,0.0,1.0,1.58974990234,-0.383072265625,6.88572397461,1.0,0.0,0.0,0.0,1.0,0.0,0.0,0.0,1.0
1489585216583743123,615,1489585216580896096,,-3.90016961098,-5.20161724091,71.34009552,0.0010450000409,1.0,0.0,0.0,0.0,1.0,0.0,0.0,0.0,1.0,4.87804889679,-8.96341514587,-5.85365867615,1.0,0.0,0.0,0.0,1.0,0.0,0.0,0.0,1.0,1.91536132812,-0.296881024126,7.15866296387,1.0,0.0,0.0,0.0,1.0,0.0,0.0,0.0,1.0
1489585216608781366,616,1489585216601365648,,-4.19023656845,-5.08144426346,71.3159866333,0.001111999969,1.0,0.0,0.0,0.0,1.0,0.0,0.0,0.0,1.0,1.76829278469,-5.06097555161,2.37804889679,1.0,0.0,0.0,0.0,1.0,0.0,0.0,0.0,1.0,1.73819040527,-0.244208569336,7.54173522949,1.0,0.0,0.0,0.0,1.0,0.0,0.0,0.0,1.0
1489585216624968008,617,1489585216622153429,,-4.39586257935,-5.01740789413,71.4304199219,0.00127799995244,1.0,0.0,0.0,0.0,1.0,0.0,0.0,0.0,1.0,-1.70731711388,-4.63414621353,8.10975551605,1.0,0.0,0.0,0.0,1.0,0.0,0.0,0.0,1.0,1.73819040527,0.00478840332031,7.99663354492,1.0,0.0,0.0,0.0,1.0,0.0,0.0,0.0,1.0
1489585216647049016,618,1489585216644074906,,-4.60995960236,-4.97180271149,71.6023025513,0.00111800001469,1.0,0.0,0.0,0.0,1.0,0.0,0.0,0.0,1.0,-3.35365867615,-4.93902444839,7.92682981491,1.0,0.0,0.0,0.0,1.0,0.0,0.0,0.0,1.0,2.01591779785,0.191536132812,8.74362446289,1.0,0.0,0.0,0.0,1.0,0.0,0.0,0.0,1.0
1489585216669130753,619,1489585216665576592,,-4.81865787506,-4.93370866776,71.7055511475,0.00127500004601,1.0,0.0,0.0,0.0,1.0,0.0,0.0,0.0,1.0,-4.69512224197,-2.07317066193,3.23170733452,1.0,0.0,0.0,0.0,1.0,0.0,0.0,0.0,1.0,2.4277204834,0.244208569336,9.80186159668,1.0,0.0,0.0,0.0,1.0,0.0,0.0,0.0,1.0
1489585216689620253,620,1489585216686412706,,-4.91710567474,-4.94949913025,71.7037353516,0.00128199998289,1.0,0.0,0.0,0.0,1.0,0.0,0.0,0.0,1.0,-6.15853643417,4.81707286835,-0.609756112099,1.0,0.0,0.0,0.0,1.0,0.0,0.0,0.0,1.0,2.4995465332,-0.148440512063,10.4913916748,1.0,0.0,0.0,0.0,1.0,0.0,0.0,0.0,1.0
1489585216709242567,621,1489585216706496061,,-4.84870958328,-5.04242944717,71.6590576172,0.000990999978967,1.0,0.0,0.0,0.0,1.0,0.0,0.0,0.0,1.0,-7.92682981491,11.1585359573,-0.304878056049,1.0,0.0,0.0,0.0,1.0,0.0,0.0,0.0,1.0,2.08295529821,-0.627280834961,11.0851536865,1.0,0.0,0.0,0.0,1.0,0.0,0.0,0.0,1.0
1489585216730382014,622,1489585216727472227,,-4.61269140244,-5.21945428848,71.6527709961,0.0014009999577,1.0,0.0,0.0,0.0,1.0,0.0,0.0,0.0,1.0,-9.08536529541,15.548781395,3.35365867615,1.0,0.0,0.0,0.0,1.0,0.0,0.0,0.0,1.0,1.71424838867,-1.1540052002,11.5496288086,1.0,0.0,0.0,0.0,1.0,0.0,0.0,0.0,1.0
1489585216751937346,623,1489585216748779173,,-4.24918031693,-5.47699642181,71.7226638794,0.00124899996445,1.0,0.0,0.0,0.0,1.0,0.0,0.0,0.0,1.0,-10.0,16.0365848541,6.21951246262,1.0,0.0,0.0,0.0,1.0,0.0,0.0,0.0,1.0,1.13963999023,-1.61369191895,12.0428343506,1.0,0.0,0.0,0.0,1.0,0.0,0.0,0.0,1.0
1489585216772766741,624,1489585216769735391,,-3.91111421585,-5.72680854797,71.8175430298,0.00212000007741,1.0,0.0,0.0,0.0,1.0,0.0,0.0,0.0,1.0,-9.45121955872,12.6219520569,5.67073154449,1.0,0.0,0.0,0.0,1.0,0.0,0.0,0.0,1.0,1.09654436035,-1.49398183594,12.497732666,1.0,0.0,0.0,0.0,1.0,0.0,0.0,0.0,1.0
1489585216794622280,625,1489585216790382391,,-3.64179849625,-5.96690893173,71.8776397705,0.00114299997222,1.0,0.0,0.0,0.0,1.0,0.0,0.0,0.0,1.0,-11.1585359573,13.658536911,3.96341490746,1.0,0.0,0.0,0.0,1.0,0.0,0.0,0.0,1.0,1.40300217285,-1.57538469238,12.7946136719,1.0,0.0,0.0,0.0,1.0,0.0,0.0,0.0,1.0
1489585216814776729,626,1489585216812062618,,-3.29362988472,-6.3269238472,71.9193115234,0.00114700000267,1.0,0.0,0.0,0.0,1.0,0.0,0.0,0.0,1.0,-20.0609760284,20.8536586761,4.87804889679,1.0,0.0,0.0,0.0,1.0,0.0,0.0,0.0,1.0,1.85790048828,-1.5083470459,13.4123177002,1.0,0.0,0.0,0.0,1.0,0.0,0.0,0.0,1.0
1489585216837472111,627,1489585216832994253,,-2.78155708313,-6.85060310364,71.9530258179,0.00116600003093,1.0,0.0,0.0,0.0,1.0,0.0,0.0,0.0,1.0,-29.6341457367,31.0975627899,4.69512224197,1.0,0.0,0.0,0.0,1.0,0.0,0.0,0.0,1.0,2.05422502441,-1.42215578613,13.4506249268,1.0,0.0,0.0,0.0,1.0,0.0,0.0,0.0,1.0
1489585216857052550,628,1489585216854022190,,-2.07308912277,-7.55339050293,71.9071884155,0.00120199995581,1.0,0.0,0.0,0.0,1.0,0.0,0.0,0.0,1.0,-35.9756088257,37.5,1.34146344662,1.0,0.0,0.0,0.0,1.0,0.0,0.0,0.0,1.0,1.1540052002,-1.96803376465,13.4027408936,1.0,0.0,0.0,0.0,1.0,0.0,0.0,0.0,1.0
1489585216877792258,629,1489585216874801637,,-1.27289187908,-8.3713388443,71.7703323364,0.00134299998172,1.0,0.0,0.0,0.0,1.0,0.0,0.0,0.0,1.0,-36.0975646973,32.5609779358,-2.43902444839,1.0,0.0,0.0,0.0,1.0,0.0,0.0,0.0,1.0,-0.325611425781,-2.68150585937,12.7227876221,1.0,0.0,0.0,0.0,1.0,0.0,0.0,0.0,1.0
1489585216898625195,630,1489585216896204157,,-0.653906643391,-9.17603206635,71.6214141846,0.0012379999971,1.0,0.0,0.0,0.0,1.0,0.0,0.0,0.0,1.0,-28.0487804413,10.6707315445,-2.74390244484,1.0,0.0,0.0,0.0,1.0,0.0,0.0,0.0,1.0,-1.38863696289,-3.4189199707,12.2918313232,1.0,0.0,0.0,0.0,1.0,0.0,0.0,0.0,1.0
1489585216919345424,631,1489585216916432720,,-0.532304346561,-9.77136993408,71.6045455933,0.00128800002858,1.0,0.0,0.0,0.0,1.0,0.0,0.0,0.0,1.0,-16.8292694092,-14.3902444839,1.52439022064,1.0,0.0,0.0,0.0,1.0,0.0,0.0,0.0,1.0,-1.07260241682,-3.54341845703,12.0619879639,1.0,0.0,0.0,0.0,1.0,0.0,0.0,0.0,1.0
1489585216940507318,632,1489585216938047895,,-0.903954982758,-10.1569576263,71.7936172485,0.00134399998933,1.0,0.0,0.0,0.0,1.0,0.0,0.0,0.0,1.0,-7.80487823486,-26.8902454376,9.39024448395,1.0,0.0,0.0,0.0,1.0,0.0,0.0,0.0,1.0,0.253785375977,-3.19865341797,11.7363765381,1.0,0.0,0.0,0.0,1.0,0.0,0.0,0.0,1.0
1489585216962501868,633,1489585216959917445,,-1.44074416161,-10.3848314285,72.1836776733,0.00201199995354,1.0,0.0,0.0,0.0,1.0,0.0,0.0,0.0,1.0,-3.29268312454,-23.5975627899,17.7439022064,1.0,0.0,0.0,0.0,1.0,0.0,0.0,0.0,1.0,1.30723410645,-3.09330854492,11.3772462891,1.0,0.0,0.0,0.0,1.0,0.0,0.0,0.0,1.0
1489585216983593242,634,1489585216981373714,,-1.81379163265,-10.5394449234,72.7093048096,0.00113900005817,1.0,0.0,0.0,0.0,1.0,0.0,0.0,0.0,1.0,0.18292683363,-17.1951217651,24.2682933807,1.0,0.0,0.0,0.0,1.0,0.0,0.0,0.0,1.0,1.09175595703,-2.88261879883,10.3716815918,1.0,0.0,0.0,0.0,1.0,0.0,0.0,0.0,1.0
1489585217004899668,635,1489585217001928683,,-2.04899692535,-10.6167411804,73.2919006348,0.0011419999646,1.0,0.0,0.0,0.0,1.0,0.0,0.0,0.0,1.0,4.63414621353,-15.6097564697,27.1341457367,1.0,0.0,0.0,0.0,1.0,0.0,0.0,0.0,1.0,0.804451757813,-2.61925661621,9.53371159526,1.0,0.0,0.0,0.0,1.0,0.0,0.0,0.0,1.0
1489585217025312762,636,1489585217022891099,,-2.30325770378,-10.5594987869,73.8792419434,0.00110600003973,1.0,0.0,0.0,0.0,1.0,0.0,0.0,0.0,1.0,9.63414573669,-16.4024391174,24.5731716156,1.0,0.0,0.0,0.0,1.0,0.0,0.0,0.0,1.0,1.0534486574,-1.92972653809,8.80587370605,1.0,0.0,0.0,0.0,1.0,0.0,0.0,0.0,1.0
1489585217046548094,637,1489585217044118567,,-2.62662959099,-10.3635606766,74.3954696655,0.00114399997983,1.0,0.0,0.0,0.0,1.0,0.0,0.0,0.0,1.0,13.1707324982,-18.475610733,19.1463432312,1.0,0.0,0.0,0.0,1.0,0.0,0.0,0.0,1.0,1.06781401349,-1.60890351563,8.28393774414,1.0,0.0,0.0,0.0,1.0,0.0,0.0,0.0,1.0
1489585217067200302,638,1489585217064853431,,-3.03575778008,-10.0606803894,74.7726364136,0.00105500000063,1.0,0.0,0.0,0.0,1.0,0.0,0.0,0.0,1.0,16.8292694092,-22.0731716156,11.7682924271,1.0,0.0,0.0,0.0,1.0,0.0,0.0,0.0,1.0,1.12048637695,-1.10133276367,7.50342800293,1.0,0.0,0.0,0.0,1.0,0.0,0.0,0.0,1.0
1489585217087723396,639,1489585217085589076,,-3.5731420517,-9.64414978027,74.989730835,0.00107500003651,1.0,0.0,0.0,0.0,1.0,0.0,0.0,0.0,1.0,19.4512195587,-24.3902435303,3.47560977936,1.0,0.0,0.0,0.0,1.0,0.0,0.0,0.0,1.0,1.51313544922,-0.689530078125,7.36456430664,1.0,0.0,0.0,0.0,1.0,0.0,0.0,0.0,1.0
1489585217109007843,640,1489585217106600086,,-4.23676204681,-9.11183834076,75.0200576782,0.00113999994937,1.0,0.0,0.0,0.0,1.0,0.0,0.0,0.0,1.0,20.3048782349,-23.475610733,-5.30487823486,1.0,0.0,0.0,0.0,1.0,0.0,0.0,0.0,1.0,1.82438166504,-0.383072265625,7.0724717041,1.0,0.0,0.0,0.0,1.0,0.0,0.0,0.0,1.0
1489585217130074581,641,1489585217127734949,,-4.89840507507,-8.54984283447,74.8813476562,0.00149299995974,1.0,0.0,0.0,0.0,1.0,0.0,0.0,0.0,1.0,19.4512195587,-19.4512195587,-11.4024391174,1.0,0.0,0.0,0.0,1.0,0.0,0.0,0.0,1.0,2.09253210485,-0.114921679688,6.94797321777,1.0,0.0,0.0,0.0,1.0,0.0,0.0,0.0,1.0
1489585217151061580,642,1489585217148959188,,-5.47797298431,-7.98861265182,74.6390533447,0.00119900004938,1.0,0.0,0.0,0.0,1.0,0.0,0.0,0.0,1.0,18.1097564697,-12.1951217651,-13.1707324982,1.0,0.0,0.0,0.0,1.0,0.0,0.0,0.0,1.0,2.20745393066,-0.138863696289,6.9767036377,1.0,0.0,0.0,0.0,1.0,0.0,0.0,0.0,1.0
1489585217173240557,643,1489585217169698583,,-5.86125469208,-7.47630167007,74.383392334,0.00188500003424,1.0,0.0,0.0,0.0,1.0,0.0,0.0,0.0,1.0,16.341463089,-3.47560977936,-10.7317075729,1.0,0.0,0.0,0.0,1.0,0.0,0.0,0.0,1.0,2.17872351074,-0.067037651051,7.0964137207,1.0,0.0,0.0,0.0,1.0,0.0,0.0,0.0,1.0
1489585217193645109,644,1489585217190554437,,-6.02531480789,-7.02511262894,74.1818771362,0.00113999994937,1.0,0.0,0.0,0.0,1.0,0.0,0.0,0.0,1.0,12.7439022064,4.75609779358,-5.36585378647,1.0,0.0,0.0,0.0,1.0,0.0,0.0,0.0,1.0,2.03985981445,-0.124498486328,7.2831614502,1.0,0.0,0.0,0.0,1.0,0.0,0.0,0.0,1.0
1489585217214109974,645,1489585217210976697,,-5.98752164841,-6.6882352829,74.0833282471,0.00115499994718,1.0,0.0,0.0,0.0,1.0,0.0,0.0,0.0,1.0,8.5365858078,10.1829271317,-0.792682945728,1.0,0.0,0.0,0.0,1.0,0.0,0.0,0.0,1.0,1.7908628418,0.00478840332031,7.55131203613,1.0,0.0,0.0,0.0,1.0,0.0,0.0,0.0,1.0
1489585217237382803,646,1489585217232721091,,-5.80875110626,-6.43850564957,74.0369186401,0.00117599999066,1.0,0.0,0.0,0.0,1.0,0.0,0.0,0.0,1.0,4.02439022064,10.3658542633,-0.365853667259,1.0,0.0,0.0,0.0,1.0,0.0,0.0,0.0,1.0,1.2976572998,-0.0526724365234,8.40364724263,1.0,0.0,0.0,0.0,1.0,0.0,0.0,0.0,1.0
1489585217257803084,647,1489585217253503299,,-5.66130685806,-6.27788686752,73.9693145752,0.00113800005056,1.0,0.0,0.0,0.0,1.0,0.0,0.0,0.0,1.0,0.18292683363,5.18292713165,-2.80487799644,1.0,0.0,0.0,0.0,1.0,0.0,0.0,0.0,1.0,1.30244570312,-0.0239420166016,9.11233151855,1.0,0.0,0.0,0.0,1.0,0.0,0.0,0.0,1.0
1489585217277689252,648,1489585217273993633,,-5.65188837051,-6.19867706299,73.8476104736,0.00117599999066,1.0,0.0,0.0,0.0,1.0,0.0,0.0,0.0,1.0,-2.86585378647,-0.487804889679,-6.95121955872,1.0,0.0,0.0,0.0,1.0,0.0,0.0,0.0,1.0,1.65199914551,-0.316034619141,9.94072529297,1.0,0.0,0.0,0.0,1.0,0.0,0.0,0.0,1.0
1489585217298268960,649,1489585217295855058,,-5.73764228821,-6.20567846298,73.6044692993,0.00147300004028,1.0,0.0,0.0,0.0,1.0,0.0,0.0,0.0,1.0,-5.42682933807,0.0,-14.0243902206,1.0,0.0,0.0,0.0,1.0,0.0,0.0,0.0,1.0,1.94409174805,-0.799663354492,10.5680061279,1.0,0.0,0.0,0.0,1.0,0.0,0.0,0.0,1.0
1489585217319302366,650,1489585217317103931,,-5.78051042557,-6.27702522278,73.2269515991,0.001304000034,1.0,0.0,0.0,0.0,1.0,0.0,0.0,0.0,1.0,-6.34146356583,1.95121955872,-18.7804889679,1.0,0.0,0.0,0.0,1.0,0.0,0.0,0.0,1.0,1.81959326172,-1.19710090314,11.3006318359,1.0,0.0,0.0,0.0,1.0,0.0,0.0,0.0,1.0
1489585217340845926,651,1489585217338829627,,-5.78462982178,-6.39147615433,72.7950744629,0.00189299997874,1.0,0.0,0.0,0.0,1.0,0.0,0.0,0.0,1.0,-7.50000047684,3.29268312454,-16.6463413239,1.0,0.0,0.0,0.0,1.0,0.0,0.0,0.0,1.0,1.8626888916,-1.30723410645,12.0332575439,1.0,0.0,0.0,0.0,1.0,0.0,0.0,0.0,1.0
1489585217367201251,652,1489585217360695532,,-5.7472038269,-6.55673789978,72.4958724976,0.00134600000456,1.0,0.0,0.0,0.0,1.0,0.0,0.0,0.0,1.0,-10.0,5.48780488968,-8.96341514587,1.0,0.0,0.0,0.0,1.0,0.0,0.0,0.0,1.0,2.03985981445,-1.35511813965,12.3971761963,1.0,0.0,0.0,0.0,1.0,0.0,0.0,0.0,1.0
1489585217385705650,653,1489585217381832843,,-5.64531755447,-6.76962947845,72.3316574097,0.00109999999404,1.0,0.0,0.0,0.0,1.0,0.0,0.0,0.0,1.0,-10.4878053665,6.89024400711,-5.06097555161,1.0,0.0,0.0,0.0,1.0,0.0,0.0,0.0,1.0,1.8626888916,-1.64242233887,12.1912748535,1.0,0.0,0.0,0.0,1.0,0.0,0.0,0.0,1.0
1489585217405544265,654,1489585217402744686,,-5.51046991348,-6.97965145111,72.1980667114,0.00113700004295,1.0,0.0,0.0,0.0,1.0,0.0,0.0,0.0,1.0,-10.548781395,7.80487823486,-5.24390268326,1.0,0.0,0.0,0.0,1.0,0.0,0.0,0.0,1.0,1.85311208496,-1.43173259277,12.4163298096,1.0,0.0,0.0,0.0,1.0,0.0,0.0,0.0,1.0
1489585217427689856,655,1489585217423647831,,-5.37791061401,-7.19097185135,72.0522003174,0.00125700002536,1.0,0.0,0.0,0.0,1.0,0.0,0.0,0.0,1.0,-14.2682924271,10.3048782349,-5.0,1.0,0.0,0.0,0.0,1.0,0.0,0.0,0.0,1.0,2.32716386754,-1.07739082014,13.0867062744,1.0,0.0,0.0,0.0,1.0,0.0,0.0,0.0,1.0
1489585217448118888,656,1489585217444909986,,-5.1689248085,-7.51460695267,71.9101715088,0.00121799996123,1.0,0.0,0.0,0.0,1.0,0.0,0.0,0.0,1.0,-20.2439022064,17.1951217651,-2.80487799644,1.0,0.0,0.0,0.0,1.0,0.0,0.0,0.0,1.0,2.4516625,-1.28808049316,13.0244570312,1.0,0.0,0.0,0.0,1.0,0.0,0.0,0.0,1.0
1489585217467940472,657,1489585217465877559,,-4.81995248795,-7.99392318726,71.8048553467,0.00106399995275,1.0,0.0,0.0,0.0,1.0,0.0,0.0,0.0,1.0,-25.1219520569,18.7804889679,-1.40243899822,1.0,0.0,0.0,0.0,1.0,0.0,0.0,0.0,1.0,1.49877023926,-2.13083962367,12.8233440918,1.0,0.0,0.0,0.0,1.0,0.0,0.0,0.0,1.0
1489585217493224496,658,1489585217486842110,,-4.47462320328,-8.58458137512,71.7307815552,0.00115899997763,1.0,0.0,0.0,0.0,1.0,0.0,0.0,0.0,1.0,-25.182926178,8.35365867615,-1.2804877758,1.0,0.0,0.0,0.0,1.0,0.0,0.0,0.0,1.0,0.660799658203,-2.74375510254,12.4259066162,1.0,0.0,0.0,0.0,1.0,0.0,0.0,0.0,1.0
1489585217510961813,659,1489585217507840359,,-4.38782548904,-9.19438552856,71.6881484985,0.00118699995801,1.0,0.0,0.0,0.0,1.0,0.0,0.0,0.0,1.0,-22.6219520569,-5.54878091812,-1.95121955872,1.0,0.0,0.0,0.0,1.0,0.0,0.0,0.0,1.0,0.76614453125,-3.05500131836,11.9422778809,1.0,0.0,0.0,0.0,1.0,0.0,0.0,0.0,1.0
1489585217537329064,660,1489585217529196264,,-4.59654951096,-9.7558965683,71.6673278809,0.00147300004028,1.0,0.0,0.0,0.0,1.0,0.0,0.0,0.0,1.0,-19.0853652954,-15.4268302917,-3.23170733452,1.0,0.0,0.0,0.0,1.0,0.0,0.0,0.0,1.0,1.14442839355,-3.14598098145,11.3963999023,1.0,0.0,0.0,0.0,1.0,0.0,0.0,0.0,1.0
1489585217557839293,661,1489585217550965814,,-5.01072502136,-10.2166404724,71.6432342529,0.00124699994922,1.0,0.0,0.0,0.0,1.0,0.0,0.0,0.0,1.0,-13.048781395,-20.7926826477,-5.12195110321,1.0,0.0,0.0,0.0,1.0,0.0,0.0,0.0,1.0,1.74776721191,-2.99754047852,10.7260234375,1.0,0.0,0.0,0.0,1.0,0.0,0.0,0.0,1.0
1489585217577131035,662,1489585217571635783,,-5.50121641159,-10.5162944794,71.5976715088,0.00159400003031,1.0,0.0,0.0,0.0,1.0,0.0,0.0,0.0,1.0,-7.56097555161,-18.5975627899,-5.73170757294,1.0,0.0,0.0,0.0,1.0,0.0,0.0,0.0,1.0,2.26970317383,-2.57137258301,10.0939541992,1.0,0.0,0.0,0.0,1.0,0.0,0.0,0.0,1.0
1489585217598536992,663,1489585217592931740,,-5.93792390823,-10.6983337402,71.5475616455,0.00128700002097,1.0,0.0,0.0,0.0,1.0,0.0,0.0,0.0,1.0,-3.84146332741,-8.78048801422,-3.23170733452,1.0,0.0,0.0,0.0,1.0,0.0,0.0,0.0,1.0,2.65756384277,-2.29843359375,9.44273076313,1.0,0.0,0.0,0.0,1.0,0.0,0.0,0.0,1.0
1489585217618437274,664,1489585217614339103,,-6.14489364624,-10.7979478836,71.5146865845,0.00130100001115,1.0,0.0,0.0,0.0,1.0,0.0,0.0,0.0,1.0,-1.8292683363,4.14634132385,-0.243902444839,1.0,0.0,0.0,0.0,1.0,0.0,0.0,0.0,1.0,2.57616098633,-1.9105729248,8.89685336914,1.0,0.0,0.0,0.0,1.0,0.0,0.0,0.0,1.0
1489585217638808441,665,1489585217635252352,,-6.07939720154,-10.8185358047,71.4765396118,0.00133799994364,1.0,0.0,0.0,0.0,1.0,0.0,0.0,0.0,1.0,1.76829278469,13.1097564697,0.609756112099,1.0,0.0,0.0,0.0,1.0,0.0,0.0,0.0,1.0,2.04943662109,-1.76213242187,8.16422766113,1.0,0.0,0.0,0.0,1.0,0.0,0.0,0.0,1.0
1489585217660044033,666,1489585217656559611,,-5.85654211044,-10.7383089066,71.4032211304,0.00129899999592,1.0,0.0,0.0,0.0,1.0,0.0,0.0,0.0,1.0,7.68292665482,14.9390249252,-1.40243899822,1.0,0.0,0.0,0.0,1.0,0.0,0.0,0.0,1.0,1.5322890625,-1.45088620605,7.64229169922,1.0,0.0,0.0,0.0,1.0,0.0,0.0,0.0,1.0
1489585217683426914,667,1489585217677470830,,-5.6162519455,-10.5167694092,71.2581939697,0.00137700000778,1.0,0.0,0.0,0.0,1.0,0.0,0.0,0.0,1.0,13.5365858078,12.3170728683,-7.01219511032,1.0,0.0,0.0,0.0,1.0,0.0,0.0,0.0,1.0,1.37427175293,-1.44130939941,7.27358464355,1.0,0.0,0.0,0.0,1.0,0.0,0.0,0.0,1.0
1489585217703196103,668,1489585217698212777,,-5.4842414856,-10.1475763321,70.9942092896,0.00141799997073,1.0,0.0,0.0,0.0,1.0,0.0,0.0,0.0,1.0,18.5975627899,8.59756088257,-13.1707324982,1.0,0.0,0.0,0.0,1.0,0.0,0.0,0.0,1.0,1.38384855957,-1.24019645996,7.07726010742,1.0,0.0,0.0,0.0,1.0,0.0,0.0,0.0,1.0
1489585217723309614,669,1489585217720199462,,-5.47301769257,-9.63621044159,70.5996551514,0.00159300002269,1.0,0.0,0.0,0.0,1.0,0.0,0.0,0.0,1.0,21.0975627899,4.63414621353,-18.7804889679,1.0,0.0,0.0,0.0,1.0,0.0,0.0,0.0,1.0,1.40300217285,-0.928950244141,6.70855305176,1.0,0.0,0.0,0.0,1.0,0.0,0.0,0.0,1.0
1489585217743481771,670,1489585217740388182,,-5.54653644562,-9.11108016968,70.1791534424,0.00106399995275,1.0,0.0,0.0,0.0,1.0,0.0,0.0,0.0,1.0,21.0975627899,2.98780488968,-19.1463432312,1.0,0.0,0.0,0.0,1.0,0.0,0.0,0.0,1.0,1.58496149902,-0.718260498047,6.80432111816,1.0,0.0,0.0,0.0,1.0,0.0,0.0,0.0,1.0
1489585217763253928,671,1489585217760827577,,-5.64529943466,-8.59323406219,69.7894287109,0.00119500001892,1.0,0.0,0.0,0.0,1.0,0.0,0.0,0.0,1.0,20.2439022064,2.5,-16.158536911,1.0,0.0,0.0,0.0,1.0,0.0,0.0,0.0,1.0,1.59932670898,-0.670376464844,6.96233842773,1.0,0.0,0.0,0.0,1.0,0.0,0.0,0.0,1.0
1489585217783527178,672,1489585217781488171,,-5.73640441895,-8.08623600006,69.4826126099,0.00101799995173,1.0,0.0,0.0,0.0,1.0,0.0,0.0,0.0,1.0,18.1707305908,3.65853667259,-10.7926826477,1.0,0.0,0.0,0.0,1.0,0.0,0.0,0.0,1.0,1.90099611816,-0.469263525391,7.26879624023,1.0,0.0,0.0,0.0,1.0,0.0,0.0,0.0,1.0
1489585217804175584,673,1489585217802167619,,-5.78377342224,-7.61465263367,69.278213501,0.00106200005393,1.0,0.0,0.0,0.0,1.0,0.0,0.0,0.0,1.0,15.548781395,5.67073154449,-6.28048801422,1.0,0.0,0.0,0.0,1.0,0.0,0.0,0.0,1.0,2.10689731481,-0.392649072266,8.08282480469,1.0,0.0,0.0,0.0,1.0,0.0,0.0,0.0,1.0
1489585217825964457,674,1489585217823157691,,-5.77012300491,-7.19232797623,69.1179656982,0.00109799997881,1.0,0.0,0.0,0.0,1.0,0.0,0.0,0.0,1.0,12.0731716156,8.78048801422,-5.42682933807,1.0,0.0,0.0,0.0,1.0,0.0,0.0,0.0,1.0,2.21224233398,-0.253785375977,8.72925925293,1.0,0.0,0.0,0.0,1.0,0.0,0.0,0.0,1.0
1489585217846719530,675,1489585217844542554,,-5.69205713272,-6.84349822998,68.9344863892,0.00102700002026,1.0,0.0,0.0,0.0,1.0,0.0,0.0,0.0,1.0,8.41463470459,11.0975618362,-6.82926845551,1.0,0.0,0.0,0.0,1.0,0.0,0.0,0.0,1.0,2.23139594727,-0.3064578125,9.69651672363,1.0,0.0,0.0,0.0,1.0,0.0,0.0,0.0,1.0
1489585217868767361,676,1489585217865115960,,-5.55542421341,-6.62565422058,68.7381210327,0.00102800002787,1.0,0.0,0.0,0.0,1.0,0.0,0.0,0.0,1.0,4.87804889679,12.3780488968,-7.13414621353,1.0,0.0,0.0,0.0,1.0,0.0,0.0,0.0,1.0,2.08774370153,-0.794874951172,10.2519715088,1.0,0.0,0.0,0.0,1.0,0.0,0.0,0.0,1.0
1489585217888987747,677,1489585217885751293,,-5.37257051468,-6.51240062714,68.5521316528,0.00101100001484,1.0,0.0,0.0,0.0,1.0,0.0,0.0,0.0,1.0,3.29268312454,12.3780488968,-7.01219511032,1.0,0.0,0.0,0.0,1.0,0.0,0.0,0.0,1.0,1.93930334473,-1.2737152832,10.7116582275,1.0,0.0,0.0,0.0,1.0,0.0,0.0,0.0,1.0
1489585217909916256,678,1489585217907066990,,-5.15665245056,-6.45412302017,68.3424682617,0.00115300004836,1.0,0.0,0.0,0.0,1.0,0.0,0.0,0.0,1.0,2.37804889679,14.4512205124,-9.02439117432,1.0,0.0,0.0,0.0,1.0,0.0,0.0,0.0,1.0,1.89141931152,-1.68072956543,11.5065331787,1.0,0.0,0.0,0.0,1.0,0.0,0.0,0.0,1.0
1489585217931341953,679,1489585217928262635,,-4.87834453583,-6.43840169907,68.0905914307,0.00104999996256,1.0,0.0,0.0,0.0,1.0,0.0,0.0,0.0,1.0,1.40243899822,16.5243911743,-10.1219511032,1.0,0.0,0.0,0.0,1.0,0.0,0.0,0.0,1.0,1.74776721191,-1.81959326172,11.9757967041,1.0,0.0,0.0,0.0,1.0,0.0,0.0,0.0,1.0
1489585217951925776,680,1489585217948728645,,-4.56868886948,-6.44451284409,67.8590774536,0.00106200005393,1.0,0.0,0.0,0.0,1.0,0.0,0.0,0.0,1.0,1.2804877758,17.0731716156,-7.80487823486,1.0,0.0,0.0,0.0,1.0,0.0,0.0,0.0,1.0,1.73340200195,-1.88184250488,12.3732341797,1.0,0.0,0.0,0.0,1.0,0.0,0.0,0.0,1.0
1489585217973843398,681,1489585217970085279,,-4.20031738281,-6.47264289856,67.6939926147,0.00143299996853,1.0,0.0,0.0,0.0,1.0,0.0,0.0,0.0,1.0,0.243902444839,23.1707324982,-2.80487799644,1.0,0.0,0.0,0.0,1.0,0.0,0.0,0.0,1.0,1.80043964844,-2.03507141113,12.4881558594,1.0,0.0,0.0,0.0,1.0,0.0,0.0,0.0,1.0
1489585217993778264,682,1489585217990430456,,-3.69980835915,-6.56459712982,67.6417160034,0.00103299994953,1.0,0.0,0.0,0.0,1.0,0.0,0.0,0.0,1.0,-4.39024400711,27.0121955872,3.84146332741,1.0,0.0,0.0,0.0,1.0,0.0,0.0,0.0,1.0,1.67594116211,-1.70945998535,12.871228125,1.0,0.0,0.0,0.0,1.0,0.0,0.0,0.0,1.0
1489585218016375261,683,1489585218011877924,,-3.12096834183,-6.74744415283,67.7038650513,0.00101300003007,1.0,0.0,0.0,0.0,1.0,0.0,0.0,0.0,1.0,-11.6463422775,29.3902435303,9.08536529541,1.0,0.0,0.0,0.0,1.0,0.0,0.0,0.0,1.0,1.77170922852,-1.43173259277,13.0531874512,1.0,0.0,0.0,0.0,1.0,0.0,0.0,0.0,1.0
1489585218037170541,684,1489585218032835652,,-2.4926636219,-7.08493566513,67.8314208984,0.00108800001908,1.0,0.0,0.0,0.0,1.0,0.0,0.0,0.0,1.0,-20.4878044128,30.4878044128,10.548781395,1.0,0.0,0.0,0.0,1.0,0.0,0.0,0.0,1.0,1.20188930646,-1.40779057617,12.8089788818,1.0,0.0,0.0,0.0,1.0,0.0,0.0,0.0,1.0
1489585218058691811,685,1489585218053554527,,-1.90145337582,-7.54396867752,67.9284439087,0.00116999994498,1.0,0.0,0.0,0.0,1.0,0.0,0.0,0.0,1.0,-22.682926178,17.5609760284,5.79268312454,1.0,0.0,0.0,0.0,1.0,0.0,0.0,0.0,1.0,-0.191536132812,-1.73819040527,12.2200052734,1.0,0.0,0.0,0.0,1.0,0.0,0.0,0.0,1.0
1489585218077842511,686,1489585218074615901,,-1.67650210857,-8.00971317291,67.9300231934,0.00113200000487,1.0,0.0,0.0,0.0,1.0,0.0,0.0,0.0,1.0,-20.3048782349,-3.47560977936,-3.17073178291,1.0,0.0,0.0,0.0,1.0,0.0,0.0,0.0,1.0,0.167594116211,-1.80522805176,12.004527124,1.0,0.0,0.0,0.0,1.0,0.0,0.0,0.0,1.0
1489585218104074033,687,1489585218096043316,,-1.89044737816,-8.43013477325,67.7776565552,0.0012529999949,1.0,0.0,0.0,0.0,1.0,0.0,0.0,0.0,1.0,-17.5609760284,-13.841463089,-11.7682924271,1.0,0.0,0.0,0.0,1.0,0.0,0.0,0.0,1.0,1.01035310059,-2.15957004359,11.645396875,1.0,0.0,0.0,0.0,1.0,0.0,0.0,0.0,1.0
1489585218119346978,688,1489585218117137607,,-2.22124886513,-8.82127857208,67.5148162842,0.00132399995346,1.0,0.0,0.0,0.0,1.0,0.0,0.0,0.0,1.0,-14.6341466904,-10.3048782349,-14.3292694092,1.0,0.0,0.0,0.0,1.0,0.0,0.0,0.0,1.0,1.14921679688,-2.56179577637,11.4011883057,1.0,0.0,0.0,0.0,1.0,0.0,0.0,0.0,1.0
1489585218140942050,689,1489585218138528147,,-2.42730760574,-9.18749141693,67.2727813721,0.00124400004279,1.0,0.0,0.0,0.0,1.0,0.0,0.0,0.0,1.0,-10.2439022064,-3.65853667259,-8.96341514587,1.0,0.0,0.0,0.0,1.0,0.0,0.0,0.0,1.0,0.986411083984,-2.94965644531,11.1857101562,1.0,0.0,0.0,0.0,1.0,0.0,0.0,0.0,1.0
1489585218162215194,690,1489585218159729625,,-2.43366217613,-9.48590278625,67.1923904419,0.00103299994953,1.0,0.0,0.0,0.0,1.0,0.0,0.0,0.0,1.0,-4.45121955872,1.2195122242,1.2195122242,1.0,0.0,0.0,0.0,1.0,0.0,0.0,0.0,1.0,0.565031591797,-3.18428820801,10.5105452881,1.0,0.0,0.0,0.0,1.0,0.0,0.0,0.0,1.0
1489585218183227350,691,1489585218180484125,,-2.33644914627,-9.67056274414,67.2855834961,0.00110200000927,1.0,0.0,0.0,0.0,1.0,0.0,0.0,0.0,1.0,1.40243899822,1.2804877758,7.80487823486,1.0,0.0,0.0,0.0,1.0,0.0,0.0,0.0,1.0,0.402225878906,-2.81079274902,9.66778688823,1.0,0.0,0.0,0.0,1.0,0.0,0.0,0.0,1.0
1489585218204766952,692,1489585218201987738,,-2.2509355545,-9.69965171814,67.4391479492,0.00105199997779,1.0,0.0,0.0,0.0,1.0,0.0,0.0,0.0,1.0,7.43902492523,-1.76829278469,6.64634132385,1.0,0.0,0.0,0.0,1.0,0.0,0.0,0.0,1.0,0.148440512063,-2.26491477051,9.01177504883,1.0,0.0,0.0,0.0,1.0,0.0,0.0,0.0,1.0
1489585218225853951,693,1489585218223109529,,-2.27359867096,-9.55824565887,67.5251464844,0.00116300000809,1.0,0.0,0.0,0.0,1.0,0.0,0.0,0.0,1.0,13.9024391174,-11.0975618362,0.426829278469,1.0,0.0,0.0,0.0,1.0,0.0,0.0,0.0,1.0,0.0430956298828,-1.78128603516,8.29351396626,1.0,0.0,0.0,0.0,1.0,0.0,0.0,0.0,1.0
1489585218247389648,694,1489585218244060226,,-2.55924534798,-9.20626735687,67.4832305908,0.00103499996476,1.0,0.0,0.0,0.0,1.0,0.0,0.0,0.0,1.0,19.8780498505,-19.7560977936,-7.62195110321,1.0,0.0,0.0,0.0,1.0,0.0,0.0,0.0,1.0,0.469263525391,-1.05823706072,7.61834968262,1.0,0.0,0.0,0.0,1.0,0.0,0.0,0.0,1.0
1489585218267711752,695,1489585218264589674,,-3.07060456276,-8.67274856567,67.2984466553,0.00101300003007,1.0,0.0,0.0,0.0,1.0,0.0,0.0,0.0,1.0,23.7195129395,-21.158536911,-15.0000009537,1.0,0.0,0.0,0.0,1.0,0.0,0.0,0.0,1.0,1.1540052002,-0.407014282227,7.43160195312,1.0,0.0,0.0,0.0,1.0,0.0,0.0,0.0,1.0
1489585218287948284,696,1489585218285870839,,-3.65969920158,-8.00188446045,66.9729537964,0.00101999996696,1.0,0.0,0.0,0.0,1.0,0.0,0.0,0.0,1.0,25.1219520569,-18.4146347046,-18.9024391174,1.0,0.0,0.0,0.0,1.0,0.0,0.0,0.0,1.0,1.56101948242,-0.0574608398438,7.13950935059,1.0,0.0,0.0,0.0,1.0,0.0,0.0,0.0,1.0
1489585218308870179,697,1489585218306833047,,-4.17026376724,-7.28404426575,66.5956573486,0.00107300002128,1.0,0.0,0.0,0.0,1.0,0.0,0.0,0.0,1.0,26.3414649963,-11.9512195587,-18.1707305908,1.0,0.0,0.0,0.0,1.0,0.0,0.0,0.0,1.0,1.70945998535,0.0909796630859,7.00543405762,1.0,0.0,0.0,0.0,1.0,0.0,0.0,0.0,1.0
1489585218330247126,698,1489585218328083170,,-4.52647590637,-6.54473543167,66.263168335,0.00115499994718,1.0,0.0,0.0,0.0,1.0,0.0,0.0,0.0,1.0,26.2804889679,-4.02439022064,-12.5609760284,1.0,0.0,0.0,0.0,1.0,0.0,0.0,0.0,1.0,1.7908628418,0.263362164351,7.0245876709,1.0,0.0,0.0,0.0,1.0,0.0,0.0,0.0,1.0
1489585218351263291,699,1489585218349007618,,-4.66071128845,-5.84226226807,66.0479125977,0.00109999999404,1.0,0.0,0.0,0.0,1.0,0.0,0.0,0.0,1.0,24.2073173523,5.36585378647,-5.79268312454,1.0,0.0,0.0,0.0,1.0,0.0,0.0,0.0,1.0,1.62805712891,0.215478149414,7.06768330078,1.0,0.0,0.0,0.0,1.0,0.0,0.0,0.0,1.0
1489585218374228308,700,1489585218370293835,,-4.55909585953,-5.22312784195,65.9608612061,0.0012450000504,1.0,0.0,0.0,0.0,1.0,0.0,0.0,0.0,1.0,20.2439022064,10.7926826477,-0.365853667259,1.0,0.0,0.0,0.0,1.0,0.0,0.0,0.0,1.0,1.28329208984,0.205901342773,7.35977590332,1.0,0.0,0.0,0.0,1.0,0.0,0.0,0.0,1.0
1489585218395049683,701,1489585218391311147,,-4.34867429733,-4.68803310394,65.9301452637,0.000985000049695,1.0,0.0,0.0,0.0,1.0,0.0,0.0,0.0,1.0,15.6707315445,12.5609760284,0.304878056049,1.0,0.0,0.0,0.0,1.0,0.0,0.0,0.0,1.0,1.10612116699,0.584185168546,8.04930598145,1.0,0.0,0.0,0.0,1.0,0.0,0.0,0.0,1.0
1489585218415331735,702,1489585218412147365,,-4.14691162109,-4.24174070358,65.863571167,0.00106999999844,1.0,0.0,0.0,0.0,1.0,0.0,0.0,0.0,1.0,11.2804880142,10.0609760284,-3.41463422775,1.0,0.0,0.0,0.0,1.0,0.0,0.0,0.0,1.0,1.17794714373,0.632069238281,8.60476135112,1.0,0.0,0.0,0.0,1.0,0.0,0.0,0.0,1.0
1489585218436425714,703,1489585218433779936,,-4.00674343109,-3.89013004303,65.6952819824,0.0011040000245,1.0,0.0,0.0,0.0,1.0,0.0,0.0,0.0,1.0,6.82926845551,5.97560977936,-9.26829242706,1.0,0.0,0.0,0.0,1.0,0.0,0.0,0.0,1.0,1.21625444336,0.45489831543,9.38526992329,1.0,0.0,0.0,0.0,1.0,0.0,0.0,0.0,1.0
1489585218459572553,704,1489585218455600528,,-3.9619808197,-3.64944458008,65.3792190552,0.00127300003078,1.0,0.0,0.0,0.0,1.0,0.0,0.0,0.0,1.0,2.86585378647,3.29268312454,-17.5000019073,1.0,0.0,0.0,0.0,1.0,0.0,0.0,0.0,1.0,1.42215578613,0.363918652344,10.060435376,1.0,0.0,0.0,0.0,1.0,0.0,0.0,0.0,1.0
1489585218479699554,705,1489585218476766225,,-3.96768116951,-3.4933962822,64.8884277344,0.00152100005653,1.0,0.0,0.0,0.0,1.0,0.0,0.0,0.0,1.0,0.365853667259,5.18292713165,-25.4268302917,1.0,0.0,0.0,0.0,1.0,0.0,0.0,0.0,1.0,1.81001645508,-0.067037651051,10.927136377,1.0,0.0,0.0,0.0,1.0,0.0,0.0,0.0,1.0
1489585218500320564,706,1489585218498130099,,-3.88114285469,-3.45411133766,64.2715148926,0.0012379999971,1.0,0.0,0.0,0.0,1.0,0.0,0.0,0.0,1.0,-3.47560977936,12.5,-28.4146347046,1.0,0.0,0.0,0.0,1.0,0.0,0.0,0.0,1.0,1.92014973145,-0.517147558594,11.7459533447,1.0,0.0,0.0,0.0,1.0,0.0,0.0,0.0,1.0
1489585218521366626,707,1489585218519329077,,-3.62703132629,-3.53451895714,63.6555595398,0.00113200000487,1.0,0.0,0.0,0.0,1.0,0.0,0.0,0.0,1.0,-6.09756088257,16.7073173523,-25.975610733,1.0,0.0,0.0,0.0,1.0,0.0,0.0,0.0,1.0,1.42694418945,-1.0534486574,12.1769096436,1.0,0.0,0.0,0.0,1.0,0.0,0.0,0.0,1.0
1489585218542259719,708,1489585218540076024,,-3.29354667664,-3.67474222183,63.136390686,0.00129399995785,1.0,0.0,0.0,0.0,1.0,0.0,0.0,0.0,1.0,-5.85365867615,16.4634151459,-21.5853652954,1.0,0.0,0.0,0.0,1.0,0.0,0.0,0.0,1.0,1.11090957031,-1.31681091309,12.4594254395,1.0,0.0,0.0,0.0,1.0,0.0,0.0,0.0,1.0
1489585218562716198,709,1489585218560603128,,-2.99905753136,-3.80489945412,62.7154083252,0.00108199997339,1.0,0.0,0.0,0.0,1.0,0.0,0.0,0.0,1.0,-3.41463422775,11.9512195587,-17.6219520569,1.0,0.0,0.0,0.0,1.0,0.0,0.0,0.0,1.0,0.986411083984,-1.38863696289,12.497732666,1.0,0.0,0.0,0.0,1.0,0.0,0.0,0.0,1.0
1489585218583055854,710,1489585218581024243,,-2.78682756424,-3.9080388546,62.3725471497,0.00115100003313,1.0,0.0,0.0,0.0,1.0,0.0,0.0,0.0,1.0,-4.2682929039,11.7073173523,-14.3902444839,1.0,0.0,0.0,0.0,1.0,0.0,0.0,0.0,1.0,1.36948334961,-1.10612116699,12.4546370361,1.0,0.0,0.0,0.0,1.0,0.0,0.0,0.0,1.0
1489585218604160510,711,1489585218602141034,,-2.63527369499,-4.03832292557,62.08228302,0.00101400003769,1.0,0.0,0.0,0.0,1.0,0.0,0.0,0.0,1.0,-8.71951198578,12.3170728683,-11.341463089,1.0,0.0,0.0,0.0,1.0,0.0,0.0,0.0,1.0,2.30322199707,-0.703895288086,12.3349269531,1.0,0.0,0.0,0.0,1.0,0.0,0.0,0.0,1.0
1489585218625616779,712,1489585218623165950,,-2.42553639412,-4.26847839355,61.8061408997,0.0011269999668,1.0,0.0,0.0,0.0,1.0,0.0,0.0,0.0,1.0,-16.8902435303,24.3292694092,-12.5,1.0,0.0,0.0,0.0,1.0,0.0,0.0,0.0,1.0,2.7102362793,-0.450109912109,12.5408282959,1.0,0.0,0.0,0.0,1.0,0.0,0.0,0.0,1.0
1489585218646833726,713,1489585218643774929,,-1.92075836658,-4.65369176865,61.4333267212,0.00106599996798,1.0,0.0,0.0,0.0,1.0,0.0,0.0,0.0,1.0,-22.682926178,35.6097564697,-17.317073822,1.0,0.0,0.0,0.0,1.0,0.0,0.0,0.0,1.0,1.72861359863,-0.818816967773,12.3301385498,1.0,0.0,0.0,0.0,1.0,0.0,0.0,0.0,1.0
1489585218669057130,714,1489585218664966042,,-1.20045435429,-5.18231725693,60.9419898987,0.00109999999404,1.0,0.0,0.0,0.0,1.0,0.0,0.0,0.0,1.0,-23.7804889679,32.5,-21.2804889679,1.0,0.0,0.0,0.0,1.0,0.0,0.0,0.0,1.0,0.105344873047,-1.66636435547,11.6166664551,1.0,0.0,0.0,0.0,1.0,0.0,0.0,0.0,1.0
1489585218689425067,715,1489585218686566478,,-0.579788386822,-5.76308250427,60.4184455872,0.00108099996578,1.0,0.0,0.0,0.0,1.0,0.0,0.0,0.0,1.0,-20.4268302917,19.5731716156,-21.4634151459,1.0,0.0,0.0,0.0,1.0,0.0,0.0,0.0,1.0,-0.574608398438,-2.30322199707,11.2766898193,1.0,0.0,0.0,0.0,1.0,0.0,0.0,0.0,1.0
1489585218711079774,716,1489585218707631862,,-0.258967518806,-6.27909135818,59.97265625,0.00109999999404,1.0,0.0,0.0,0.0,1.0,0.0,0.0,0.0,1.0,-15.548781395,4.39024400711,-17.1951217651,1.0,0.0,0.0,0.0,1.0,0.0,0.0,0.0,1.0,-0.536301208408,-2.49475812988,11.2335941895,1.0,0.0,0.0,0.0,1.0,0.0,0.0,0.0,1.0
1489585218732085575,717,1489585218728867299,,-0.248213261366,-6.69262170792,59.6944885254,0.00109599996358,1.0,0.0,0.0,0.0,1.0,0.0,0.0,0.0,1.0,-11.7682924271,-5.79268312454,-8.84146404266,1.0,0.0,0.0,0.0,1.0,0.0,0.0,0.0,1.0,-0.0430956298828,-2.38462499965,11.0516348633,1.0,0.0,0.0,0.0,1.0,0.0,0.0,0.0,1.0
1489585218754571166,718,1489585218750187162,,-0.418081730604,-7.01932668686,59.6086769104,0.00114599999506,1.0,0.0,0.0,0.0,1.0,0.0,0.0,0.0,1.0,-10.2439022064,-8.17073154449,-0.731707334518,1.0,0.0,0.0,0.0,1.0,0.0,0.0,0.0,1.0,0.718260498047,-2.15478164027,10.7403886475,1.0,0.0,0.0,0.0,1.0,0.0,0.0,0.0,1.0
1489585218775119207,719,1489585218771087443,,-0.58316886425,-7.30187606812,59.6717605591,0.00118799996562,1.0,0.0,0.0,0.0,1.0,0.0,0.0,0.0,1.0,-9.69512176514,-6.58536624908,5.18292713165,1.0,0.0,0.0,0.0,1.0,0.0,0.0,0.0,1.0,0.694318481445,-1.99676418457,10.1562034424,1.0,0.0,0.0,0.0,1.0,0.0,0.0,0.0,1.0
1489585218796469175,720,1489585218791540120,,-0.718138694763,-7.55777168274,59.8079566956,0.0010529999854,1.0,0.0,0.0,0.0,1.0,0.0,0.0,0.0,1.0,-8.04878044128,-7.25609779358,6.40243911743,1.0,0.0,0.0,0.0,1.0,0.0,0.0,0.0,1.0,0.507570751953,-1.7908628418,9.67257470703,1.0,0.0,0.0,0.0,1.0,0.0,0.0,0.0,1.0
1489585218815464979,721,1489585218812019464,,-0.873616099358,-7.74297475815,59.929523468,0.00101200002246,1.0,0.0,0.0,0.0,1.0,0.0,0.0,0.0,1.0,-4.32926845551,-11.2195119858,3.53658556938,1.0,0.0,0.0,0.0,1.0,0.0,0.0,0.0,1.0,0.287304199219,-1.53707746582,8.95431420898,1.0,0.0,0.0,0.0,1.0,0.0,0.0,0.0,1.0
1489585218836506041,722,1489585218832901463,,-1.13387131691,-7.80508708954,59.9899482727,0.00106699997559,1.0,0.0,0.0,0.0,1.0,0.0,0.0,0.0,1.0,1.8292683363,-18.2926826477,-0.670731723309,1.0,0.0,0.0,0.0,1.0,0.0,0.0,0.0,1.0,0.282515795898,-1.26892687988,8.2025348877,1.0,0.0,0.0,0.0,1.0,0.0,0.0,0.0,1.0
1489585218857406269,723,1489585218853918983,,-1.5761885643,-7.67898988724,59.9757156372,0.00109899998643,1.0,0.0,0.0,0.0,1.0,0.0,0.0,0.0,1.0,7.86585378647,-23.7195129395,-4.87804889679,1.0,0.0,0.0,0.0,1.0,0.0,0.0,0.0,1.0,0.732625708008,-0.675164868164,7.77636699219,1.0,0.0,0.0,0.0,1.0,0.0,0.0,0.0,1.0
1489585218877966290,724,1489585218875484315,,-2.19322037697,-7.37395381927,59.9028816223,0.00126499996986,1.0,0.0,0.0,0.0,1.0,0.0,0.0,0.0,1.0,12.1951217651,-23.658536911,-6.89024400711,1.0,0.0,0.0,0.0,1.0,0.0,0.0,0.0,1.0,1.33117612305,-0.282515795898,7.55131203613,1.0,0.0,0.0,0.0,1.0,0.0,0.0,0.0,1.0
1489585218898663133,725,1489585218896251523,,-2.77649378777,-6.97207593918,59.7937698364,0.00118999998085,1.0,0.0,0.0,0.0,1.0,0.0,0.0,0.0,1.0,14.6951217651,-18.9634151459,-7.25609779358,1.0,0.0,0.0,0.0,1.0,0.0,0.0,0.0,1.0,1.66636435547,-0.067037651051,7.48427438965,1.0,0.0,0.0,0.0,1.0,0.0,0.0,0.0,1.0
1489585218919356696,726,1489585218916796804,,-3.2696685791,-6.50709152222,59.6800956726,0.00163700000849,1.0,0.0,0.0,0.0,1.0,0.0,0.0,0.0,1.0,16.4634151459,-12.5,-5.36585378647,1.0,0.0,0.0,0.0,1.0,0.0,0.0,0.0,1.0,1.80043964844,0.0191536132812,7.45075556641,1.0,0.0,0.0,0.0,1.0,0.0,0.0,0.0,1.0
1489585218940925204,727,1489585218937919428,,-3.60090136528,-6.02847194672,59.6102294922,0.00116700003855,1.0,0.0,0.0,0.0,1.0,0.0,0.0,0.0,1.0,17.4390239716,-3.17073178291,-1.2804877758,1.0,0.0,0.0,0.0,1.0,0.0,0.0,0.0,1.0,1.85790048828,-0.0430956298828,7.33583388672,1.0,0.0,0.0,0.0,1.0,0.0,0.0,0.0,1.0
1489585218961606787,728,1489585218959002312,,-3.70945072174,-5.53882694244,59.6365432739,0.00127100001555,1.0,0.0,0.0,0.0,1.0,0.0,0.0,0.0,1.0,17.7439022064,4.39024400711,5.30487823486,1.0,0.0,0.0,0.0,1.0,0.0,0.0,0.0,1.0,1.53707746582,0.0287304199219,7.57525405273,1.0,0.0,0.0,0.0,1.0,0.0,0.0,0.0,1.0
1489585218982438735,729,1489585218980055197,,-3.66000533104,-5.05911207199,59.7927093506,0.00111599999946,1.0,0.0,0.0,0.0,1.0,0.0,0.0,0.0,1.0,16.8902435303,5.36585378647,11.5853662491,1.0,0.0,0.0,0.0,1.0,0.0,0.0,0.0,1.0,1.30723410645,0.3064578125,8.09240161133,1.0,0.0,0.0,0.0,1.0,0.0,0.0,0.0,1.0
1489585219003574119,730,1489585219000810478,,-3.61189365387,-4.60585165024,60.0493469238,0.00124699994922,1.0,0.0,0.0,0.0,1.0,0.0,0.0,0.0,1.0,14.6341466904,6.0365858078,15.0609760284,1.0,0.0,0.0,0.0,1.0,0.0,0.0,0.0,1.0,1.80043964844,0.440533105469,8.78672009277,1.0,0.0,0.0,0.0,1.0,0.0,0.0,0.0,1.0
1489585219023859870,731,1489585219021445238,,-3.53505825996,-4.21195650101,60.3174209595,0.00115300004836,1.0,0.0,0.0,0.0,1.0,0.0,0.0,0.0,1.0,10.548781395,11.5243911743,13.5975618362,1.0,0.0,0.0,0.0,1.0,0.0,0.0,0.0,1.0,2.03985981445,0.488417138672,9.72045874023,1.0,0.0,0.0,0.0,1.0,0.0,0.0,0.0,1.0
1489585219045852649,732,1489585219042733903,,-3.30812692642,-3.93014144897,60.5324554443,0.00101200002246,1.0,0.0,0.0,0.0,1.0,0.0,0.0,0.0,1.0,6.40243911743,16.6463413239,11.0975618362,1.0,0.0,0.0,0.0,1.0,0.0,0.0,0.0,1.0,1.69030637207,0.15801730957,10.2088758789,1.0,0.0,0.0,0.0,1.0,0.0,0.0,0.0,1.0
1489585219068625583,733,1489585219063458768,,-2.9856197834,-3.78761816025,60.7126197815,0.00134099996649,1.0,0.0,0.0,0.0,1.0,0.0,0.0,0.0,1.0,3.04878044128,14.5121955872,10.0,1.0,0.0,0.0,0.0,1.0,0.0,0.0,0.0,1.0,1.01992990723,-0.430956298828,10.7403886475,1.0,0.0,0.0,0.0,1.0,0.0,0.0,0.0,1.0
1489585219086672847,734,1489585219084044622,,-2.72969126701,-3.76263380051,60.8700447083,0.00106499996036,1.0,0.0,0.0,0.0,1.0,0.0,0.0,0.0,1.0,0.670731723309,8.78048801422,7.62195110321,1.0,0.0,0.0,0.0,1.0,0.0,0.0,0.0,1.0,0.857124194336,-0.91458503418,11.2383825928,1.0,0.0,0.0,0.0,1.0,0.0,0.0,0.0,1.0
1489585219107768856,735,1489585219104691361,,-2.57750296593,-3.80891180038,60.9756126404,0.00106999999844,1.0,0.0,0.0,0.0,1.0,0.0,0.0,0.0,1.0,-0.792682945728,3.41463422775,3.90243911743,1.0,0.0,0.0,0.0,1.0,0.0,0.0,0.0,1.0,0.737414111328,-1.2737152832,11.750741748,1.0,0.0,0.0,0.0,1.0,0.0,0.0,0.0,1.0
1489585219127759347,736,1489585219125264819,,-2.55379009247,-3.89228987694,61.005279541,0.00106899999082,1.0,0.0,0.0,0.0,1.0,0.0,0.0,0.0,1.0,-0.975609779358,-4.87804889679,-0.18292683363,1.0,0.0,0.0,0.0,1.0,0.0,0.0,0.0,1.0,0.723048901367,-1.36469494629,12.3014081299,1.0,0.0,0.0,0.0,1.0,0.0,0.0,0.0,1.0
1489585219149645407,737,1489585219146507495,,-2.72669816017,-3.96435570717,60.9732208252,0.00119199999608,1.0,0.0,0.0,0.0,1.0,0.0,0.0,0.0,1.0,-1.52439022064,-9.39024448395,-2.56097555161,1.0,0.0,0.0,0.0,1.0,0.0,0.0,0.0,1.0,1.60890351563,-1.22583125,12.4402718262,1.0,0.0,0.0,0.0,1.0,0.0,0.0,0.0,1.0
1489585219170855843,738,1489585219168060118,,-2.93728113174,-4.08280515671,60.9513549805,0.00141400005668,1.0,0.0,0.0,0.0,1.0,0.0,0.0,0.0,1.0,-7.50000047684,-1.03658533096,1.64634156227,1.0,0.0,0.0,0.0,1.0,0.0,0.0,0.0,1.0,2.48996972656,-0.828393774414,13.0244570312,1.0,0.0,0.0,0.0,1.0,0.0,0.0,0.0,1.0
1489585219191901332,739,1489585219188925087,,-2.9459643364,-4.33736419678,61.0669593811,0.00115999998525,1.0,0.0,0.0,0.0,1.0,0.0,0.0,0.0,1.0,-17.8658542633,11.9512195587,10.7926826477,1.0,0.0,0.0,0.0,1.0,0.0,0.0,0.0,1.0,2.88740720215,-0.483628735352,13.5607582031,1.0,0.0,0.0,0.0,1.0,0.0,0.0,0.0,1.0
1489585219213671715,740,1489585219209861930,,-2.6680791378,-4.79816484451,61.3355331421,0.00100599997677,1.0,0.0,0.0,0.0,1.0,0.0,0.0,0.0,1.0,-27.317073822,20.4878044128,17.2560977936,1.0,0.0,0.0,0.0,1.0,0.0,0.0,0.0,1.0,1.98239897461,-0.703895288086,13.3069728271,1.0,0.0,0.0,0.0,1.0,0.0,0.0,0.0,1.0
1489585219235474495,741,1489585219231298355,,-2.2768907547,-5.42581939697,61.6537284851,0.00119900004938,1.0,0.0,0.0,0.0,1.0,0.0,0.0,0.0,1.0,-28.7195110321,12.3170728683,14.8170728683,1.0,0.0,0.0,0.0,1.0,0.0,0.0,0.0,1.0,0.679953271484,-1.2497732666,12.3875993896,1.0,0.0,0.0,0.0,1.0,0.0,0.0,0.0,1.0
1489585219256064359,742,1489585219252247959,,-2.13067293167,-6.02731752396,61.8568916321,0.00100599997677,1.0,0.0,0.0,0.0,1.0,0.0,0.0,0.0,1.0,-24.3292694092,-3.59756112099,5.97560977936,1.0,0.0,0.0,0.0,1.0,0.0,0.0,0.0,1.0,0.536301208408,-1.74297880859,11.9374894775,1.0,0.0,0.0,0.0,1.0,0.0,0.0,0.0,1.0
1489585219276828390,743,1489585219273171989,,-2.31852579117,-6.53484010696,61.8907737732,0.00127200002316,1.0,0.0,0.0,0.0,1.0,0.0,0.0,0.0,1.0,-18.1097564697,-13.2317075729,-3.47560977936,1.0,0.0,0.0,0.0,1.0,0.0,0.0,0.0,1.0,0.976834277344,-2.06859023437,11.6166664551,1.0,0.0,0.0,0.0,1.0,0.0,0.0,0.0,1.0
1489585219296834557,744,1489585219293851333,,-2.64248967171,-6.93249177933,61.7792129517,0.0011190000223,1.0,0.0,0.0,0.0,1.0,0.0,0.0,0.0,1.0,-12.7439022064,-11.4024391174,-8.41463470459,1.0,0.0,0.0,0.0,1.0,0.0,0.0,0.0,1.0,1.54665427246,-2.41814367676,11.3293622559,1.0,0.0,0.0,0.0,1.0,0.0,0.0,0.0,1.0
1489585219318490514,745,1489585219315573227,,-2.87298369408,-7.27039241791,61.6455421448,0.0011490000179,1.0,0.0,0.0,0.0,1.0,0.0,0.0,0.0,1.0,-7.13414621353,-4.32926845551,-4.39024400711,1.0,0.0,0.0,0.0,1.0,0.0,0.0,0.0,1.0,1.31681091309,-2.80121594238,10.9462899902,1.0,0.0,0.0,0.0,1.0,0.0,0.0,0.0,1.0
1489585219339208295,746,1489585219336489653,,-2.90629863739,-7.52842998505,61.6641082764,0.00129499996547,1.0,0.0,0.0,0.0,1.0,0.0,0.0,0.0,1.0,-1.2195122242,1.8902438879,5.97560977936,1.0,0.0,0.0,0.0,1.0,0.0,0.0,0.0,1.0,0.957680664062,-2.97838686523,10.1274730225,1.0,0.0,0.0,0.0,1.0,0.0,0.0,0.0,1.0
1489585219360999668,747,1489585219357527277,,-2.80030298233,-7.66886901855,61.8666419983,0.00138399994466,1.0,0.0,0.0,0.0,1.0,0.0,0.0,0.0,1.0,5.48780488968,3.96341490746,13.4146347046,1.0,0.0,0.0,0.0,1.0,0.0,0.0,0.0,1.0,0.790086547852,-2.57616098633,9.42357714985,1.0,0.0,0.0,0.0,1.0,0.0,0.0,0.0,1.0
1489585219381037658,748,1489585219378018861,,-2.68470621109,-7.62533950806,62.1324501038,0.00132599996869,1.0,0.0,0.0,0.0,1.0,0.0,0.0,0.0,1.0,11.4024391174,1.52439022064,12.1951217651,1.0,0.0,0.0,0.0,1.0,0.0,0.0,0.0,1.0,0.699106884766,-1.90099611816,8.8154505127,1.0,0.0,0.0,0.0,1.0,0.0,0.0,0.0,1.0
1489585219401749814,749,1489585219399013724,,-2.66214156151,-7.40669250488,62.3138389587,0.00112499995157,1.0,0.0,0.0,0.0,1.0,0.0,0.0,0.0,1.0,16.4024391174,-4.87804889679,5.48780488968,1.0,0.0,0.0,0.0,1.0,0.0,0.0,0.0,1.0,0.584185168546,-1.25456166992,7.91044228516,1.0,0.0,0.0,0.0,1.0,0.0,0.0,0.0,1.0
1489585219422214470,750,1489585219419452287,,-2.85484552383,-7.02569389343,62.3698043823,0.00100399996154,1.0,0.0,0.0,0.0,1.0,0.0,0.0,0.0,1.0,19.1463432312,-12.6219520569,-0.792682945728,1.0,0.0,0.0,0.0,1.0,0.0,0.0,0.0,1.0,0.909796630859,-0.588973571866,7.49385119629,1.0,0.0,0.0,0.0,1.0,0.0,0.0,0.0,1.0
1489585219444277301,751,1489585219441158556,,-3.26432132721,-6.52020359039,62.3107032776,0.00114299997222,1.0,0.0,0.0,0.0,1.0,0.0,0.0,0.0,1.0,18.2317085266,-15.2439022064,-5.79268312454,1.0,0.0,0.0,0.0,1.0,0.0,0.0,0.0,1.0,1.57059628906,0.0239420166016,7.27837304687,1.0,0.0,0.0,0.0,1.0,0.0,0.0,0.0,1.0
1489585219467707422,752,1489585219462385138,,-3.72889924049,-5.99892473221,62.1754074097,0.00107100000605,1.0,0.0,0.0,0.0,1.0,0.0,0.0,0.0,1.0,15.975610733,-11.0975618362,-7.68292665482,1.0,0.0,0.0,0.0,1.0,0.0,0.0,0.0,1.0,1.8626888916,0.244208569336,7.10120212402,1.0,0.0,0.0,0.0,1.0,0.0,0.0,0.0,1.0
1489585219486794684,753,1489585219483857449,,-4.08501148224,-5.5129275322,61.9992256165,0.00119099998847,1.0,0.0,0.0,0.0,1.0,0.0,0.0,0.0,1.0,12.8658542633,-3.10975623131,-7.68292665482,1.0,0.0,0.0,0.0,1.0,0.0,0.0,0.0,1.0,1.94409174805,0.339976635742,7.01979926758,1.0,0.0,0.0,0.0,1.0,0.0,0.0,0.0,1.0
1489585219507279393,754,1489585219504419032,,-4.24657535553,-5.11100721359,61.8371658325,0.00101200002246,1.0,0.0,0.0,0.0,1.0,0.0,0.0,0.0,1.0,10.3048782349,3.65853667259,-5.85365867615,1.0,0.0,0.0,0.0,1.0,0.0,0.0,0.0,1.0,1.78128603516,0.387860668945,6.96712683105,1.0,0.0,0.0,0.0,1.0,0.0,0.0,0.0,1.0
1489585219528501548,755,1489585219525012491,,-4.2435631752,-4.77827072144,61.6992721558,0.00104700005613,1.0,0.0,0.0,0.0,1.0,0.0,0.0,0.0,1.0,7.80487823486,9.08536529541,-4.57317066193,1.0,0.0,0.0,0.0,1.0,0.0,0.0,0.0,1.0,1.47961662598,0.282515795898,7.10120212402,1.0,0.0,0.0,0.0,1.0,0.0,0.0,0.0,1.0
1489585219548547871,756,1489585219545272512,,-4.11585617065,-4.49601888657,61.5693321228,0.00110999995377,1.0,0.0,0.0,0.0,1.0,0.0,0.0,0.0,1.0,5.91463422775,12.3170728683,-4.51219558716,1.0,0.0,0.0,0.0,1.0,0.0,0.0,0.0,1.0,1.35032973633,0.277727392578,7.39329472656,1.0,0.0,0.0,0.0,1.0,0.0,0.0,0.0,1.0
1489585219569449089,757,1489585219566222949,,-3.90731477737,-4.24358940125,61.4180984497,0.00121200003196,1.0,0.0,0.0,0.0,1.0,0.0,0.0,0.0,1.0,4.75609779358,14.6951217651,-6.0365858078,1.0,0.0,0.0,0.0,1.0,0.0,0.0,0.0,1.0,1.34554133301,0.363918652344,7.93438430176,1.0,0.0,0.0,0.0,1.0,0.0,0.0,0.0,1.0
1489585219590159995,758,1489585219587546822,,-3.66463041306,-3.99583911896,61.2238426208,0.00116099999286,1.0,0.0,0.0,0.0,1.0,0.0,0.0,0.0,1.0,4.08536577225,15.9146347046,-7.86585378647,1.0,0.0,0.0,0.0,1.0,0.0,0.0,0.0,1.0,1.4604630127,0.402225878906,8.78672009277,1.0,0.0,0.0,0.0,1.0,0.0,0.0,0.0,1.0
1489585219610997307,759,1489585219608613821,,-3.37356805801,-3.78624987602,60.9849243164,0.00128500000574,1.0,0.0,0.0,0.0,1.0,0.0,0.0,0.0,1.0,2.80487799644,19.0853652954,-10.3048782349,1.0,0.0,0.0,0.0,1.0,0.0,0.0,0.0,1.0,1.41736738281,0.258573779297,9.46188437642,1.0,0.0,0.0,0.0,1.0,0.0,0.0,0.0,1.0
1489585219631600765,760,1489585219628994780,,-3.01898288727,-3.65319800377,60.7015342712,0.00107600004412,1.0,0.0,0.0,0.0,1.0,0.0,0.0,0.0,1.0,1.76829278469,18.7804889679,-13.2317075729,1.0,0.0,0.0,0.0,1.0,0.0,0.0,0.0,1.0,0.948103857422,-0.277727392578,10.2040874756,1.0,0.0,0.0,0.0,1.0,0.0,0.0,0.0,1.0
1489585219652406723,761,1489585219650126831,,-2.67194795609,-3.58871006966,60.3482475281,0.00101000000723,1.0,0.0,0.0,0.0,1.0,0.0,0.0,0.0,1.0,1.03658533096,13.7804880142,-17.134147644,1.0,0.0,0.0,0.0,1.0,0.0,0.0,0.0,1.0,0.656011254883,-0.636857641602,10.9175595703,1.0,0.0,0.0,0.0,1.0,0.0,0.0,0.0,1.0
1489585219674179867,762,1489585219671701850,,-2.43230867386,-3.57455682755,59.9188919067,0.00125199998729,1.0,0.0,0.0,0.0,1.0,0.0,0.0,0.0,1.0,-0.670731723309,9.26829242706,-19.7560977936,1.0,0.0,0.0,0.0,1.0,0.0,0.0,0.0,1.0,0.823605371094,-0.785298144531,11.6980693115,1.0,0.0,0.0,0.0,1.0,0.0,0.0,0.0,1.0
1489585219694884054,763,1489585219692236923,,-2.28651833534,-3.63559913635,59.5070037842,0.0011190000223,1.0,0.0,0.0,0.0,1.0,0.0,0.0,0.0,1.0,-4.87804889679,5.73170757294,-18.1097564697,1.0,0.0,0.0,0.0,1.0,0.0,0.0,0.0,1.0,0.828393774414,-0.995987890625,12.3397153564,1.0,0.0,0.0,0.0,1.0,0.0,0.0,0.0,1.0
1489585219717128916,764,1489585219713858973,,-2.2195827961,-3.815356493,59.1392555237,0.001200000057,1.0,0.0,0.0,0.0,1.0,0.0,0.0,0.0,1.0,-9.26829242706,-0.487804889679,-15.4268302917,1.0,0.0,0.0,0.0,1.0,0.0,0.0,0.0,1.0,0.689530078125,-1.16358193377,12.6270195557,1.0,0.0,0.0,0.0,1.0,0.0,0.0,0.0,1.0
1489585219737446125,765,1489585219735063472,,-2.30720901489,-4.07350826263,58.8064994812,0.00120199995581,1.0,0.0,0.0,0.0,1.0,0.0,0.0,0.0,1.0,-13.5975618362,-5.24390268326,-16.158536911,1.0,0.0,0.0,0.0,1.0,0.0,0.0,0.0,1.0,1.24019645996,-1.1540052002,12.976572998,1.0,0.0,0.0,0.0,1.0,0.0,0.0,0.0,1.0
1489585219758430624,766,1489585219756394169,,-2.47920870781,-4.40880537033,58.452583313,0.00116600003093,1.0,0.0,0.0,0.0,1.0,0.0,0.0,0.0,1.0,-20.1829280853,-4.75609779358,-17.0121955872,1.0,0.0,0.0,0.0,1.0,0.0,0.0,0.0,1.0,1.83395847168,-0.703895288086,13.4649901367,1.0,0.0,0.0,0.0,1.0,0.0,0.0,0.0,1.0
1489585219779753560,767,1489585219777490699,,-2.62990427017,-4.88978481293,58.0886230469,0.00183600001037,1.0,0.0,0.0,0.0,1.0,0.0,0.0,0.0,1.0,-27.6219520569,-0.18292683363,-16.2804889679,1.0,0.0,0.0,0.0,1.0,0.0,0.0,0.0,1.0,2.02549460449,-0.905008227539,13.6804682861,1.0,0.0,0.0,0.0,1.0,0.0,0.0,0.0,1.0
1489585219801305819,768,1489585219797882908,,-2.6815290451,-5.49717330933,57.7587280273,0.00115599995479,1.0,0.0,0.0,0.0,1.0,0.0,0.0,0.0,1.0,-31.7682914734,3.17073178291,-15.3048791885,1.0,0.0,0.0,0.0,1.0,0.0,0.0,0.0,1.0,1.74297880859,-1.45088620605,13.3883756836,1.0,0.0,0.0,0.0,1.0,0.0,0.0,0.0,1.0
1489585219821562142,769,1489585219818878292,,-2.68936991692,-6.19264316559,57.4302139282,0.00113300001249,1.0,0.0,0.0,0.0,1.0,0.0,0.0,0.0,1.0,-30.0609760284,1.8902438879,-15.3048791885,1.0,0.0,0.0,0.0,1.0,0.0,0.0,0.0,1.0,1.33117612305,-2.16435844691,12.7323644287,1.0,0.0,0.0,0.0,1.0,0.0,0.0,0.0,1.0
1489585219843019193,770,1489585219840158833,,-2.74396491051,-6.84267044067,57.0946388245,0.00126199994702,1.0,0.0,0.0,0.0,1.0,0.0,0.0,0.0,1.0,-23.1707324982,-2.92682933807,-16.0365848541,1.0,0.0,0.0,0.0,1.0,0.0,0.0,0.0,1.0,1.14921679688,-2.59052619629,12.0763531738,1.0,0.0,0.0,0.0,1.0,0.0,0.0,0.0,1.0
1489585219864212702,771,1489585219861294946,,-2.91430139542,-7.35434007645,56.772102356,0.00102800002787,1.0,0.0,0.0,0.0,1.0,0.0,0.0,0.0,1.0,-14.2682924271,-8.17073154449,-15.3048791885,1.0,0.0,0.0,0.0,1.0,0.0,0.0,0.0,1.0,1.26892687988,-2.84431157227,11.4155535156,1.0,0.0,0.0,0.0,1.0,0.0,0.0,0.0,1.0
1489585219885363660,772,1489585219882521112,,-3.18000173569,-7.67852115631,56.5054359436,0.00109799997881,1.0,0.0,0.0,0.0,1.0,0.0,0.0,0.0,1.0,-5.12195110321,-8.96341514587,-11.7073173523,1.0,0.0,0.0,0.0,1.0,0.0,0.0,0.0,1.0,1.70467158203,-2.76769711914,10.8744639404,1.0,0.0,0.0,0.0,1.0,0.0,0.0,0.0,1.0
1489585219906101232,773,1489585219903182747,,-3.4406747818,-7.80705738068,56.3451080322,0.00102500000503,1.0,0.0,0.0,0.0,1.0,0.0,0.0,0.0,1.0,1.52439022064,-5.12195110321,-5.79268312454,1.0,0.0,0.0,0.0,1.0,0.0,0.0,0.0,1.0,2.09253210485,-2.29843359375,10.4004120117,1.0,0.0,0.0,0.0,1.0,0.0,0.0,0.0,1.0
1489585219926944846,774,1489585219923886101,,-3.6093070507,-7.81857061386,56.3117713928,0.00112999998964,1.0,0.0,0.0,0.0,1.0,0.0,0.0,0.0,1.0,4.51219558716,1.58536589146,1.76829278469,1.0,0.0,0.0,0.0,1.0,0.0,0.0,0.0,1.0,2.39899020961,-1.90578452148,9.90720646973,1.0,0.0,0.0,0.0,1.0,0.0,0.0,0.0,1.0
1489585219948307574,775,1489585219944967162,,-3.6283595562,-7.78093671799,56.3964004517,0.00101899995934,1.0,0.0,0.0,0.0,1.0,0.0,0.0,0.0,1.0,4.20731735229,7.98780536652,7.62195110321,1.0,0.0,0.0,0.0,1.0,0.0,0.0,0.0,1.0,2.09732050817,-1.45567460937,9.46188437642,1.0,0.0,0.0,0.0,1.0,0.0,0.0,0.0,1.0
1489585219969378323,776,1489585219965405985,,-3.53069210052,-7.73790884018,56.532497406,0.0011419999646,1.0,0.0,0.0,0.0,1.0,0.0,0.0,0.0,1.0,3.59756112099,8.17073154449,8.17073154449,1.0,0.0,0.0,0.0,1.0,0.0,0.0,0.0,1.0,1.5801730957,-1.36469494629,8.81066210937,1.0,0.0,0.0,0.0,1.0,0.0,0.0,0.0,1.0
1489585219989444230,777,1489585219987002098,,-3.47405934334,-7.66581249237,56.6070213318,0.001111999969,1.0,0.0,0.0,0.0,1.0,0.0,0.0,0.0,1.0,4.57317066193,1.95121955872,0.853658556938,1.0,0.0,0.0,0.0,1.0,0.0,0.0,0.0,1.0,1.18273554705,-1.05823706072,8.12113203125,1.0,0.0,0.0,0.0,1.0,0.0,0.0,0.0,1.0
1489585220013869505,778,1489585220008015452,,-3.60545372963,-7.50149059296,56.4893836975,0.00159500003792,1.0,0.0,0.0,0.0,1.0,0.0,0.0,0.0,1.0,7.50000047684,-5.97560977936,-10.8536586761,1.0,0.0,0.0,0.0,1.0,0.0,0.0,0.0,1.0,1.33596452637,-0.670376464844,7.51300480957,1.0,0.0,0.0,0.0,1.0,0.0,0.0,0.0,1.0
1489585220030936979,779,1489585220028406983,,-3.93187665939,-7.23018026352,56.1545028687,0.00115300004836,1.0,0.0,0.0,0.0,1.0,0.0,0.0,0.0,1.0,10.6097564697,-11.4634151459,-21.2804889679,1.0,0.0,0.0,0.0,1.0,0.0,0.0,0.0,1.0,1.55144267578,-0.440533105469,7.24006582031,1.0,0.0,0.0,0.0,1.0,0.0,0.0,0.0,1.0
1489585220060638601,780,1489585220049510336,,-4.38714551926,-6.87587928772,55.649307251,0.00128399999812,1.0,0.0,0.0,0.0,1.0,0.0,0.0,0.0,1.0,12.7439022064,-12.9878053665,-26.7682933807,1.0,0.0,0.0,0.0,1.0,0.0,0.0,0.0,1.0,1.72382519531,-0.421379492187,7.00543405762,1.0,0.0,0.0,0.0,1.0,0.0,0.0,0.0,1.0
1489585220076404827,781,1489585220070749366,,-4.88113212585,-6.4787607193,55.0952796936,0.0013490000274,1.0,0.0,0.0,0.0,1.0,0.0,0.0,0.0,1.0,14.7560987473,-10.9146347046,-26.3414649963,1.0,0.0,0.0,0.0,1.0,0.0,0.0,0.0,1.0,2.04943662109,-0.359130249023,6.92881960449,1.0,0.0,0.0,0.0,1.0,0.0,0.0,0.0,1.0
1489585220096398963,782,1489585220091342668,,-5.29227256775,-6.03050422668,54.5986633301,0.0011340000201,1.0,0.0,0.0,0.0,1.0,0.0,0.0,0.0,1.0,16.9512195587,-4.02439022064,-20.975610733,1.0,0.0,0.0,0.0,1.0,0.0,0.0,0.0,1.0,2.27927998047,-0.330399829102,6.84262834473,1.0,0.0,0.0,0.0,1.0,0.0,0.0,0.0,1.0
1489585220115490132,783,1489585220112851958,,-5.50798130035,-5.54577445984,54.2397613525,0.00105099997018,1.0,0.0,0.0,0.0,1.0,0.0,0.0,0.0,1.0,19.0853652954,2.98780488968,-11.0365858078,1.0,0.0,0.0,0.0,1.0,0.0,0.0,0.0,1.0,1.95845695801,-0.296881024126,7.1203557373,1.0,0.0,0.0,0.0,1.0,0.0,0.0,0.0,1.0
1489585220140438166,784,1489585220134311353,,-5.54708003998,-5.05113172531,54.1001968384,0.00110899994615,1.0,0.0,0.0,0.0,1.0,0.0,0.0,0.0,1.0,18.7804889679,6.64634132385,0.0609756112099,1.0,0.0,0.0,0.0,1.0,0.0,0.0,0.0,1.0,1.78607443848,-0.143652099609,7.38371791992,1.0,0.0,0.0,0.0,1.0,0.0,0.0,0.0,1.0
1489585220158284285,785,1489585220155748143,,-5.51205396652,-4.53854751587,54.1611289978,0.00129399995785,1.0,0.0,0.0,0.0,1.0,0.0,0.0,0.0,1.0,16.8292694092,6.15853643417,7.37804937363,1.0,0.0,0.0,0.0,1.0,0.0,0.0,0.0,1.0,1.93930334473,0.474051928711,8.03494077148,1.0,0.0,0.0,0.0,1.0,0.0,0.0,0.0,1.0
1489585220179130034,786,1489585220176918423,,-5.48801231384,-4.06698083878,54.3291778564,0.00128399999812,1.0,0.0,0.0,0.0,1.0,0.0,0.0,0.0,1.0,12.1341466904,6.64634132385,10.7317075729,1.0,0.0,0.0,0.0,1.0,0.0,0.0,0.0,1.0,2.37983659633,0.905008227539,8.8633345459,1.0,0.0,0.0,0.0,1.0,0.0,0.0,0.0,1.0
1489585220201207345,787,1489585220197699225,,-5.45137739182,-3.71483302116,54.5187721252,0.00118799996562,1.0,0.0,0.0,0.0,1.0,0.0,0.0,0.0,1.0,5.0,8.78048801422,10.7317075729,1.0,0.0,0.0,0.0,1.0,0.0,0.0,0.0,1.0,2.55221896973,1.01035310059,9.66299848491,1.0,0.0,0.0,0.0,1.0,0.0,0.0,0.0,1.0
1489585220221212731,788,1489585220218447787,,-5.35043668747,-3.52911496162,54.6865234375,0.00136600004043,1.0,0.0,0.0,0.0,1.0,0.0,0.0,0.0,1.0,-2.62195134163,8.47560977936,8.47560977936,1.0,0.0,0.0,0.0,1.0,0.0,0.0,0.0,1.0,2.12126281703,0.871489404297,10.6254669678,1.0,0.0,0.0,0.0,1.0,0.0,0.0,0.0,1.0
1489585220248197012,789,1489585220239365515,,-5.25612211227,-3.54529452324,54.8046875,0.00113800005056,1.0,0.0,0.0,0.0,1.0,0.0,0.0,0.0,1.0,-10.4878053665,2.5,5.79268312454,1.0,0.0,0.0,0.0,1.0,0.0,0.0,0.0,1.0,1.72382519531,0.407014282227,11.3485158691,1.0,0.0,0.0,0.0,1.0,0.0,0.0,0.0,1.0
1489585220265372090,790,1489585220260140848,,-5.30702400208,-3.7610604763,54.8791236877,0.00115499994718,1.0,0.0,0.0,0.0,1.0,0.0,0.0,0.0,1.0,-16.0365848541,-7.31707334518,3.10975623131,1.0,0.0,0.0,0.0,1.0,0.0,0.0,0.0,1.0,1.62805712891,-0.301669427446,11.9135474609,1.0,0.0,0.0,0.0,1.0,0.0,0.0,0.0,1.0
1489585220283374459,791,1489585220280687380,,-5.55730056763,-4.11200761795,54.9171638489,0.00105500000063,1.0,0.0,0.0,0.0,1.0,0.0,0.0,0.0,1.0,-18.7804889679,-15.3048791885,0.365853667259,1.0,0.0,0.0,0.0,1.0,0.0,0.0,0.0,1.0,1.79565124512,-0.881066210937,12.392387793,1.0,0.0,0.0,0.0,1.0,0.0,0.0,0.0,1.0
1489585220304796874,792,1489585220302074639,,-5.93904399872,-4.55393648148,54.9350700378,0.00106299994513,1.0,0.0,0.0,0.0,1.0,0.0,0.0,0.0,1.0,-20.4878044128,-13.4756097794,0.243902444839,1.0,0.0,0.0,0.0,1.0,0.0,0.0,0.0,1.0,2.66235224609,-1.4844050293,12.8329208984,1.0,0.0,0.0,0.0,1.0,0.0,0.0,0.0,1.0
1489585220326334706,793,1489585220322831326,,-6.1500120163,-5.09233140945,55.0032920837,0.0010300000431,1.0,0.0,0.0,0.0,1.0,0.0,0.0,0.0,1.0,-24.5731716156,0.548780500889,6.0365858078,1.0,0.0,0.0,0.0,1.0,0.0,0.0,0.0,1.0,3.21780703125,-2.04943662109,13.3069728271,1.0,0.0,0.0,0.0,1.0,0.0,0.0,0.0,1.0
1489585220347785038,794,1489585220343385826,,-6.0454287529,-5.73596191406,55.1872787476,0.00113099999726,1.0,0.0,0.0,0.0,1.0,0.0,0.0,0.0,1.0,-28.8414649963,13.7804880142,13.4146347046,1.0,0.0,0.0,0.0,1.0,0.0,0.0,0.0,1.0,3.07894333496,-2.38941340297,13.5847002197,1.0,0.0,0.0,0.0,1.0,0.0,0.0,0.0,1.0
1489585220369334484,795,1489585220364169908,,-5.66648769379,-6.46442604065,55.4649810791,0.00621700007468,1.0,0.0,0.0,0.0,1.0,0.0,0.0,0.0,1.0,-30.7926845551,22.682926178,16.341463089,1.0,0.0,0.0,0.0,1.0,0.0,0.0,0.0,1.0,2.45645090332,-2.25054956055,13.3117612305,1.0,0.0,0.0,0.0,1.0,0.0,0.0,0.0,1.0
1489585220388059768,796,1489585220384640033,,-5.14175701141,-7.20424842834,55.7370414734,0.000998000032268,1.0,0.0,0.0,0.0,1.0,0.0,0.0,0.0,1.0,-29.1463413239,25.3658542633,15.7926826477,1.0,0.0,0.0,0.0,1.0,0.0,0.0,0.0,1.0,1.68551796875,-2.81558115234,12.9047469482,1.0,0.0,0.0,0.0,1.0,0.0,0.0,0.0,1.0
1489585220408484737,797,1489585220405604429,,-4.61433124542,-7.88766288757,55.9529571533,0.000975999981165,1.0,0.0,0.0,0.0,1.0,0.0,0.0,0.0,1.0,-22.1341457367,16.2804889679,10.9756097794,1.0,0.0,0.0,0.0,1.0,0.0,0.0,0.0,1.0,0.775721337891,-3.04542451172,12.3061965332,1.0,0.0,0.0,0.0,1.0,0.0,0.0,0.0,1.0
1489585220430122152,798,1489585220426486272,,-4.34506320953,-8.40965366364,56.0901374817,0.00108600000385,1.0,0.0,0.0,0.0,1.0,0.0,0.0,0.0,1.0,-12.4390249252,0.426829278469,5.0,1.0,0.0,0.0,0.0,1.0,0.0,0.0,0.0,1.0,0.517147558594,-3.36624753418,11.6501852783,1.0,0.0,0.0,0.0,1.0,0.0,0.0,0.0,1.0
1489585220450696651,799,1489585220447115459,,-4.3762049675,-8.75244903564,56.1660079956,0.00123699998949,1.0,0.0,0.0,0.0,1.0,0.0,0.0,0.0,1.0,-4.14634132385,-9.75609779358,1.46341466904,1.0,0.0,0.0,0.0,1.0,0.0,0.0,0.0,1.0,0.881066210937,-3.48116921387,11.4778027588,1.0,0.0,0.0,0.0,1.0,0.0,0.0,0.0,1.0
1489585220473911408,800,1489585220469440112,,-4.62663221359,-8.95292854309,56.2122764587,0.00229900004342,1.0,0.0,0.0,0.0,1.0,0.0,0.0,0.0,1.0,1.8902438879,-12.9268293381,-0.548780500889,1.0,0.0,0.0,0.0,1.0,0.0,0.0,0.0,1.0,1.33117612305,-3.2992098877,11.1090957031,1.0,0.0,0.0,0.0,1.0,0.0,0.0,0.0,1.0
1489585220494192262,801,1489585220490408674,,-4.87811279297,-9.01752471924,56.2277946472,0.000977999996394,1.0,0.0,0.0,0.0,1.0,0.0,0.0,0.0,1.0,7.13414621353,-9.5731716156,-1.2195122242,1.0,0.0,0.0,0.0,1.0,0.0,0.0,0.0,1.0,1.49877023926,-3.16034619141,10.5153336914,1.0,0.0,0.0,0.0,1.0,0.0,0.0,0.0,1.0
1489585220516122802,802,1489585220510878383,,-5.04444932938,-8.97580623627,56.2410888672,0.000967999978457,1.0,0.0,0.0,0.0,1.0,0.0,0.0,0.0,1.0,12.5,-6.64634132385,-0.304878056049,1.0,0.0,0.0,0.0,1.0,0.0,0.0,0.0,1.0,1.31681091309,-2.94486804199,9.70609353027,1.0,0.0,0.0,0.0,1.0,0.0,0.0,0.0,1.0
1489585220537190217,803,1489585220532898714,,-5.16698265076,-8.79660797119,56.2716560364,0.000990999978967,1.0,0.0,0.0,0.0,1.0,0.0,0.0,0.0,1.0,17.9268302917,-6.09756088257,1.34146344662,1.0,0.0,0.0,0.0,1.0,0.0,0.0,0.0,1.0,1.2976572998,-2.3654710941,8.84418093262,1.0,0.0,0.0,0.0,1.0,0.0,0.0,0.0,1.0
1489585220557621280,804,1489585220555144200,,-5.3121676445,-8.4274559021,56.3402252197,0.00315100001171,1.0,0.0,0.0,0.0,1.0,0.0,0.0,0.0,1.0,21.341463089,-7.25609779358,2.80487799644,1.0,0.0,0.0,0.0,1.0,0.0,0.0,0.0,1.0,1.21625444336,-1.51792385254,8.19774648437,1.0,0.0,0.0,0.0,1.0,0.0,0.0,0.0,1.0
1489585220580271089,805,1489585220577042761,,-5.5274977684,-7.95685911179,56.4266052246,0.00129499996547,1.0,0.0,0.0,0.0,1.0,0.0,0.0,0.0,1.0,23.0487823486,-11.8292684555,2.37804889679,1.0,0.0,0.0,0.0,1.0,0.0,0.0,0.0,1.0,1.26892687988,-0.799663354492,7.67581052246,1.0,0.0,0.0,0.0,1.0,0.0,0.0,0.0,1.0
1489585220600382569,806,1489585220597559032,,-5.87595796585,-7.40723562241,56.4542045593,0.00134800001979,1.0,0.0,0.0,0.0,1.0,0.0,0.0,0.0,1.0,22.9268302917,-15.6707315445,-2.19512200356,1.0,0.0,0.0,0.0,1.0,0.0,0.0,0.0,1.0,1.59932670898,-0.349553442383,7.25443103027,1.0,0.0,0.0,0.0,1.0,0.0,0.0,0.0,1.0
1489585220621403370,807,1489585220618605770,,-6.35074996948,-6.79297685623,56.3413467407,0.000984000042081,1.0,0.0,0.0,0.0,1.0,0.0,0.0,0.0,1.0,20.9146347046,-16.7682933807,-9.51219558716,1.0,0.0,0.0,0.0,1.0,0.0,0.0,0.0,1.0,1.84832368164,0.138863696289,7.0485296875,1.0,0.0,0.0,0.0,1.0,0.0,0.0,0.0,1.0
1489585220642858598,808,1489585220639899957,,-6.87906312943,-6.18120479584,56.0588989258,0.000990999978967,1.0,0.0,0.0,0.0,1.0,0.0,0.0,0.0,1.0,17.134147644,-15.1219511032,-16.5243911743,1.0,0.0,0.0,0.0,1.0,0.0,0.0,0.0,1.0,1.838746875,0.521935925381,6.66545742187,1.0,0.0,0.0,0.0,1.0,0.0,0.0,0.0,1.0
1489585220663952576,809,1489585220661193101,,-7.37403297424,-5.62381744385,55.6382408142,0.000997000024654,1.0,0.0,0.0,0.0,1.0,0.0,0.0,0.0,1.0,13.4146347046,-9.5731716156,-21.4634151459,1.0,0.0,0.0,0.0,1.0,0.0,0.0,0.0,1.0,2.30801040039,0.45968671875,6.42124885254,1.0,0.0,0.0,0.0,1.0,0.0,0.0,0.0,1.0
1489585220685734835,810,1489585220682405569,,-7.7210931778,-5.13359546661,55.1256904602,0.000964000006206,1.0,0.0,0.0,0.0,1.0,0.0,0.0,0.0,1.0,9.81707286835,-1.2195122242,-22.9268302917,1.0,0.0,0.0,0.0,1.0,0.0,0.0,0.0,1.0,2.44208569336,0.244208569336,6.95755002441,1.0,0.0,0.0,0.0,1.0,0.0,0.0,0.0,1.0
1489585220706168658,811,1489585220703201527,,-7.83792638779,-4.75893163681,54.6455497742,0.000974000024144,1.0,0.0,0.0,0.0,1.0,0.0,0.0,0.0,1.0,6.64634132385,7.62195110321,-18.9634151459,1.0,0.0,0.0,0.0,1.0,0.0,0.0,0.0,1.0,2.14520483363,0.229843359375,7.0485296875,1.0,0.0,0.0,0.0,1.0,0.0,0.0,0.0,1.0
1489585220726622116,812,1489585220724044307,,-7.73652362823,-4.49585390091,54.2842292786,0.000980000011623,1.0,0.0,0.0,0.0,1.0,0.0,0.0,0.0,1.0,3.10975623131,14.6341466904,-11.5243911743,1.0,0.0,0.0,0.0,1.0,0.0,0.0,0.0,1.0,2.00155258789,0.263362164351,7.4028715332,1.0,0.0,0.0,0.0,1.0,0.0,0.0,0.0,1.0
1489585220748265937,813,1489585220745424223,,-7.47381830215,-4.32361602783,54.0575675964,0.0009710000013,1.0,0.0,0.0,0.0,1.0,0.0,0.0,0.0,1.0,-0.304878056049,19.8780498505,-5.73170757294,1.0,0.0,0.0,0.0,1.0,0.0,0.0,0.0,1.0,2.07816689489,0.215478149414,8.20732329102,1.0,0.0,0.0,0.0,1.0,0.0,0.0,0.0,1.0
1489585220770857986,814,1489585220768429188,,-7.0965423584,-4.23742198944,53.8835716248,0.000991999986582,1.0,0.0,0.0,0.0,1.0,0.0,0.0,0.0,1.0,-2.74390244484,22.8048782349,-6.82926845551,1.0,0.0,0.0,0.0,1.0,0.0,0.0,0.0,1.0,1.70945998535,-0.0574608398438,9.18415756836,1.0,0.0,0.0,0.0,1.0,0.0,0.0,0.0,1.0
1489585220788840406,815,1489585220786422129,,-6.6706776619,-4.22178459167,53.6370811462,0.0011930000037,1.0,0.0,0.0,0.0,1.0,0.0,0.0,0.0,1.0,-3.04878044128,17.8658542633,-12.3170728683,1.0,0.0,0.0,0.0,1.0,0.0,0.0,0.0,1.0,1.19710090314,-0.426167895508,9.74918916016,1.0,0.0,0.0,0.0,1.0,0.0,0.0,0.0,1.0
1489585220810040322,816,1489585220807235691,,-6.39042663574,-4.22149896622,53.2495346069,0.00124899996445,1.0,0.0,0.0,0.0,1.0,0.0,0.0,0.0,1.0,-1.46341466904,5.91463422775,-21.158536911,1.0,0.0,0.0,0.0,1.0,0.0,0.0,0.0,1.0,1.08696755371,-0.703895288086,10.4530844482,1.0,0.0,0.0,0.0,1.0,0.0,0.0,0.0,1.0
1489585220831426071,817,1489585220828494513,,-6.41677331924,-4.16997814178,52.6951026917,0.00100499996915,1.0,0.0,0.0,0.0,1.0,0.0,0.0,0.0,1.0,-0.304878056049,-3.84146332741,-28.6585388184,1.0,0.0,0.0,0.0,1.0,0.0,0.0,0.0,1.0,1.94409174805,-0.732625708008,11.166556543,1.0,0.0,0.0,0.0,1.0,0.0,0.0,0.0,1.0
1489585220852373539,818,1489585220848903127,,-6.58259487152,-4.1208562851,52.0628929138,0.000968999986071,1.0,0.0,0.0,0.0,1.0,0.0,0.0,0.0,1.0,-2.31707310677,-1.46341466904,-31.0975627899,1.0,0.0,0.0,0.0,1.0,0.0,0.0,0.0,1.0,2.62883342285,-0.794874951172,11.9231242676,1.0,0.0,0.0,0.0,1.0,0.0,0.0,0.0,1.0
1489585220873004184,819,1489585220870607730,,-6.65131998062,-4.13376140594,51.3986587524,0.00249899993651,1.0,0.0,0.0,0.0,1.0,0.0,0.0,0.0,1.0,-5.67073154449,4.14634132385,-28.4146347046,1.0,0.0,0.0,0.0,1.0,0.0,0.0,0.0,1.0,2.50433493652,-0.866701000977,12.5216746826,1.0,0.0,0.0,0.0,1.0,0.0,0.0,0.0,1.0
1489585220894047954,820,1489585220891008532,,-6.62330770493,-4.21223688126,50.8458976746,0.0012009999482,1.0,0.0,0.0,0.0,1.0,0.0,0.0,0.0,1.0,-8.35365867615,4.63414621353,-24.4512195587,1.0,0.0,0.0,0.0,1.0,0.0,0.0,0.0,1.0,2.25533796387,-0.775721337891,12.6605383789,1.0,0.0,0.0,0.0,1.0,0.0,0.0,0.0,1.0
1489585220917340367,821,1489585220914831621,,-6.59692239761,-4.34706497192,50.3473243713,0.00116800004616,1.0,0.0,0.0,0.0,1.0,0.0,0.0,0.0,1.0,-10.9146347046,5.42682933807,-22.1951236725,1.0,0.0,0.0,0.0,1.0,0.0,0.0,0.0,1.0,2.44687409668,-0.900219824219,12.7419412354,1.0,0.0,0.0,0.0,1.0,0.0,0.0,0.0,1.0
1489585220938147783,822,1489585220934412216,,-6.51428985596,-4.56057024002,49.8377952576,0.00229500001296,1.0,0.0,0.0,0.0,1.0,0.0,0.0,0.0,1.0,-14.6341466904,10.8536586761,-21.0975627899,1.0,0.0,0.0,0.0,1.0,0.0,0.0,0.0,1.0,2.76290871582,-0.61770402832,13.0723410645,1.0,0.0,0.0,0.0,1.0,0.0,0.0,0.0,1.0
1489585220958491398,823,1489585220956204995,,-6.29777860641,-4.84600687027,49.3845329285,0.00112899998203,1.0,0.0,0.0,0.0,1.0,0.0,0.0,0.0,1.0,-19.4512195587,17.6829280853,-19.2073173523,1.0,0.0,0.0,0.0,1.0,0.0,0.0,0.0,1.0,2.4995465332,-0.871489404297,13.0196686279,1.0,0.0,0.0,0.0,1.0,0.0,0.0,0.0,1.0
1489585220979036366,824,1489585220977060849,,-5.94648838043,-5.26290559769,48.9614181519,0.00211500003934,1.0,0.0,0.0,0.0,1.0,0.0,0.0,0.0,1.0,-22.5,18.1097564697,-15.9146347046,1.0,0.0,0.0,0.0,1.0,0.0,0.0,0.0,1.0,1.92493813477,-1.2976572998,12.6557499756,1.0,0.0,0.0,0.0,1.0,0.0,0.0,0.0,1.0
1489585221000278574,825,1489585220997863317,,-5.63290786743,-5.73636817932,48.6051597595,0.00218000006862,1.0,0.0,0.0,0.0,1.0,0.0,0.0,0.0,1.0,-22.3170719147,13.9634151459,-14.6341466904,1.0,0.0,0.0,0.0,1.0,0.0,0.0,0.0,1.0,1.57059628906,-1.74297880859,12.1721212402,1.0,0.0,0.0,0.0,1.0,0.0,0.0,0.0,1.0
1489585221020750782,826,1489585221018680316,,-5.41488552094,-6.20472192764,48.2480354309,0.00104600004852,1.0,0.0,0.0,0.0,1.0,0.0,0.0,0.0,1.0,-17.8048782349,8.59756088257,-16.7073173523,1.0,0.0,0.0,0.0,1.0,0.0,0.0,0.0,1.0,1.28808049316,-2.20266552734,11.6789156982,1.0,0.0,0.0,0.0,1.0,0.0,0.0,0.0,1.0
1489585221042341322,827,1489585221039957732,,-5.32120275497,-6.58896017075,47.8526611328,0.000992999994196,1.0,0.0,0.0,0.0,1.0,0.0,0.0,0.0,1.0,-10.9756097794,1.34146344662,-18.7804889679,1.0,0.0,0.0,0.0,1.0,0.0,0.0,0.0,1.0,1.24498486328,-2.40856701625,11.03248125,1.0,0.0,0.0,0.0,1.0,0.0,0.0,0.0,1.0
1489585221062687020,828,1489585221060464055,,-5.39080190659,-6.81918668747,47.479511261,0.00114399997983,1.0,0.0,0.0,0.0,1.0,0.0,0.0,0.0,1.0,-4.93902444839,-1.09756100178,-16.9512195587,1.0,0.0,0.0,0.0,1.0,0.0,0.0,0.0,1.0,1.97282216797,-2.26491477051,10.7212350342,1.0,0.0,0.0,0.0,1.0,0.0,0.0,0.0,1.0
1489585221083223291,829,1489585221081120377,,-5.46668243408,-6.95007991791,47.1917419434,0.00096700002905,1.0,0.0,0.0,0.0,1.0,0.0,0.0,0.0,1.0,-2.43902444839,4.14634132385,-11.0365858078,1.0,0.0,0.0,0.0,1.0,0.0,0.0,0.0,1.0,2.22181914063,-2.00634099121,10.4387192383,1.0,0.0,0.0,0.0,1.0,0.0,0.0,0.0,1.0
1489585221104210811,830,1489585221102069772,,-5.39619255066,-7.05854129791,47.0220909119,0.00103399995714,1.0,0.0,0.0,0.0,1.0,0.0,0.0,0.0,1.0,-2.13414645195,11.7682924271,-3.35365867615,1.0,0.0,0.0,0.0,1.0,0.0,0.0,0.0,1.0,2.14520483363,-1.77170922852,9.81143840332,1.0,0.0,0.0,0.0,1.0,0.0,0.0,0.0,1.0
1489585221126432600,831,1489585221123257553,,-5.16815567017,-7.16602325439,46.9779701233,0.000972000008915,1.0,0.0,0.0,0.0,1.0,0.0,0.0,0.0,1.0,-2.25609779358,13.9634151459,1.8902438879,1.0,0.0,0.0,0.0,1.0,0.0,0.0,0.0,1.0,1.54665427246,-1.57059628906,9.30865547017,1.0,0.0,0.0,0.0,1.0,0.0,0.0,0.0,1.0
1489585221148822722,832,1489585221144514187,,-4.9083814621,-7.25761175156,46.9928245544,0.0010229999898,1.0,0.0,0.0,0.0,1.0,0.0,0.0,0.0,1.0,-1.58536589146,10.9146347046,1.95121955872,1.0,0.0,0.0,0.0,1.0,0.0,0.0,0.0,1.0,1.17794714373,-1.31202250977,8.58081933452,1.0,0.0,0.0,0.0,1.0,0.0,0.0,0.0,1.0
1489585221168016495,833,1489585221165463999,,-4.75325727463,-7.28822946548,46.9428100586,0.00100299995393,1.0,0.0,0.0,0.0,1.0,0.0,0.0,0.0,1.0,0.548780500889,3.41463422775,-4.69512224197,1.0,0.0,0.0,0.0,1.0,0.0,0.0,0.0,1.0,0.780509741211,-1.09654436035,7.75721337891,1.0,0.0,0.0,0.0,1.0,0.0,0.0,0.0,1.0
1489585221190194638,834,1489585221186063030,,-4.79379272461,-7.22090959549,46.720035553,0.0010150000453,1.0,0.0,0.0,0.0,1.0,0.0,0.0,0.0,1.0,4.63414621353,-6.58536624908,-15.6707315445,1.0,0.0,0.0,0.0,1.0,0.0,0.0,0.0,1.0,0.928950244141,-0.866701000977,7.36935270996,1.0,0.0,0.0,0.0,1.0,0.0,0.0,0.0,1.0
1489585221210538305,835,1489585221207221227,,-5.09165716171,-7.02082681656,46.2987136841,0.00129599997308,1.0,0.0,0.0,0.0,1.0,0.0,0.0,0.0,1.0,8.96341514587,-14.0853662491,-24.6951236725,1.0,0.0,0.0,0.0,1.0,0.0,0.0,0.0,1.0,1.24019645996,-0.612915625,7.11077893066,1.0,0.0,0.0,0.0,1.0,0.0,0.0,0.0,1.0
1489585221231361190,836,1489585221227626091,,-5.53793096542,-6.71628808975,45.787399292,0.0010529999854,1.0,0.0,0.0,0.0,1.0,0.0,0.0,0.0,1.0,11.7073173523,-14.8170728683,-26.4634151459,1.0,0.0,0.0,0.0,1.0,0.0,0.0,0.0,1.0,1.72861359863,-0.536301208408,7.25443103027,1.0,0.0,0.0,0.0,1.0,0.0,0.0,0.0,1.0
1489585221253779333,837,1489585221248566320,,-6.00051593781,-6.35396432877,45.2978401184,0.00101600005291,1.0,0.0,0.0,0.0,1.0,0.0,0.0,0.0,1.0,11.8902444839,-9.87804889679,-21.2195129395,1.0,0.0,0.0,0.0,1.0,0.0,0.0,0.0,1.0,2.07816689489,-0.416591088867,7.23048901367,1.0,0.0,0.0,0.0,1.0,0.0,0.0,0.0,1.0
1489585221273810344,838,1489585221270302849,,-6.31302165985,-5.99076795578,44.9520759583,0.0025190000888,1.0,0.0,0.0,0.0,1.0,0.0,0.0,0.0,1.0,12.0121955872,-1.09756100178,-11.2804880142,1.0,0.0,0.0,0.0,1.0,0.0,0.0,0.0,1.0,2.05422502441,-0.292092584273,7.26879624023,1.0,0.0,0.0,0.0,1.0,0.0,0.0,0.0,1.0
1489585221294177188,839,1489585221290921047,,-6.4242811203,-5.65381479263,44.7938346863,0.000985000049695,1.0,0.0,0.0,0.0,1.0,0.0,0.0,0.0,1.0,11.6463422775,3.84146332741,-3.23170733452,1.0,0.0,0.0,0.0,1.0,0.0,0.0,0.0,1.0,1.96324536133,-0.138863696289,7.25921943359,1.0,0.0,0.0,0.0,1.0,0.0,0.0,0.0,1.0
1489585221314861948,840,1489585221313215909,,-6.42756795883,-5.31671094894,44.7426719666,0.00113999994937,1.0,0.0,0.0,0.0,1.0,0.0,0.0,0.0,1.0,10.4878053665,6.15853643417,0.609756112099,1.0,0.0,0.0,0.0,1.0,0.0,0.0,0.0,1.0,1.98239897461,0.181959326172,7.7093293457,1.0,0.0,0.0,0.0,1.0,0.0,0.0,0.0,1.0
1489585221337685142,841,1489585221334321137,,-6.38318252563,-4.9595708847,44.719669342,0.00270600011572,1.0,0.0,0.0,0.0,1.0,0.0,0.0,0.0,1.0,7.56097555161,9.51219558716,0.609756112099,1.0,0.0,0.0,0.0,1.0,0.0,0.0,0.0,1.0,2.27449157715,0.411802685547,8.46589648579,1.0,0.0,0.0,0.0,1.0,0.0,0.0,0.0,1.0
1489585221360412451,842,1489585221354884803,,-6.25501918793,-4.69914627075,44.6682319641,0.00284900004044,1.0,0.0,0.0,0.0,1.0,0.0,0.0,0.0,1.0,4.08536577225,13.2317075729,-1.70731711388,1.0,0.0,0.0,0.0,1.0,0.0,0.0,0.0,1.0,2.14999323695,0.3064578125,8.83460412598,1.0,0.0,0.0,0.0,1.0,0.0,0.0,0.0,1.0
