%time,field.header.seq,field.header.stamp,field.header.frame_id,field.orientation.x,field.orientation.y,field.orientation.z,field.orientation.w,field.orientation_covariance0,field.orientation_covariance1,field.orientation_covariance2,field.orientation_covariance3,field.orientation_covariance4,field.orientation_covariance5,field.orientation_covariance6,field.orientation_covariance7,field.orientation_covariance8,field.angular_velocity.x,field.angular_velocity.y,field.angular_velocity.z,field.angular_velocity_covariance0,field.angular_velocity_covariance1,field.angular_velocity_covariance2,field.angular_velocity_covariance3,field.angular_velocity_covariance4,field.angular_velocity_covariance5,field.angular_velocity_covariance6,field.angular_velocity_covariance7,field.angular_velocity_covariance8,field.linear_acceleration.x,field.linear_acceleration.y,field.linear_acceleration.z,field.linear_acceleration_covariance0,field.linear_acceleration_covariance1,field.linear_acceleration_covariance2,field.linear_acceleration_covariance3,field.linear_acceleration_covariance4,field.linear_acceleration_covariance5,field.linear_acceleration_covariance6,field.linear_acceleration_covariance7,field.linear_acceleration_covariance8
1489584518557193815,0,1489584518553796945,,-73.1170501709,-15.7659435272,-168.01210022,3960.95019531,1.0,0.0,0.0,0.0,1.0,0.0,0.0,0.0,1.0,1.2195122242,16.8902435303,5.12195110321,1.0,0.0,0.0,0.0,1.0,0.0,0.0,0.0,1.0,1.61848032227,-0.0287304199219,9.77791958008,1.0,0.0,0.0,0.0,1.0,0.0,0.0,0.0,1.0
1489584518579243833,1,1489584518577112690,,-72.1329345703,-15.4235563278,-169.116943359,0.00250299996696,1.0,0.0,0.0,0.0,1.0,0.0,0.0,0.0,1.0,1.58536589146,13.2926826477,-1.58536589146,1.0,0.0,0.0,0.0,1.0,0.0,0.0,0.0,1.0,1.04866025408,0.215478149414,10.0556469727,1.0,0.0,0.0,0.0,1.0,0.0,0.0,0.0,1.0
1489584518597937711,2,1489584518596525109,,-71.1371002197,-14.4907855988,-170.880615234,0.00357699999586,1.0,0.0,0.0,0.0,1.0,0.0,0.0,0.0,1.0,0.304878056049,10.7317075729,-2.68292689323,1.0,0.0,0.0,0.0,1.0,0.0,0.0,0.0,1.0,0.799663354492,0.383072265625,9.98860932617,1.0,0.0,0.0,0.0,1.0,0.0,0.0,0.0,1.0
1489584518621142780,3,1489584518619666844,,-69.7514343262,-13.0683431625,-173.338638306,0.00356999994256,1.0,0.0,0.0,0.0,1.0,0.0,0.0,0.0,1.0,0.243902444839,11.0975618362,-0.304878056049,1.0,0.0,0.0,0.0,1.0,0.0,0.0,0.0,1.0,0.861912597656,0.354341845703,10.4722380615,1.0,0.0,0.0,0.0,1.0,0.0,0.0,0.0,1.0
1489584518643873161,4,1489584518642030091,,-68.128692627,-11.5484342575,-175.946853638,0.00316200009547,1.0,0.0,0.0,0.0,1.0,0.0,0.0,0.0,1.0,-0.487804889679,12.7439022064,1.2804877758,1.0,0.0,0.0,0.0,1.0,0.0,0.0,0.0,1.0,0.00957680664062,0.335188232422,10.3285859619,1.0,0.0,0.0,0.0,1.0,0.0,0.0,0.0,1.0
1489584518666209117,5,1489584518664513911,,-66.502456665,-10.4827880859,-178.032974243,0.00298599991947,1.0,0.0,0.0,0.0,1.0,0.0,0.0,0.0,1.0,-0.365853667259,7.80487823486,3.65853667259,1.0,0.0,0.0,0.0,1.0,0.0,0.0,0.0,1.0,0.119710083008,0.253785375977,10.165780249,1.0,0.0,0.0,0.0,1.0,0.0,0.0,0.0,1.0
1489584518690139862,6,1489584518688044188,,-64.9586105347,-9.70776176453,-179.817047119,0.00242100004107,1.0,0.0,0.0,0.0,1.0,0.0,0.0,0.0,1.0,-0.365853667259,3.65853667259,5.12195110321,1.0,0.0,0.0,0.0,1.0,0.0,0.0,0.0,1.0,-0.0143652099609,-0.244208569336,10.1992990723,1.0,0.0,0.0,0.0,1.0,0.0,0.0,0.0,1.0
1489584518710437122,7,1489584518708857177,,-63.4318313599,-9.14770698547,178.627044678,0.0025879999157,1.0,0.0,0.0,0.0,1.0,0.0,0.0,0.0,1.0,0.12195122242,1.8902438879,6.95121955872,1.0,0.0,0.0,0.0,1.0,0.0,0.0,0.0,1.0,0.301669427446,-0.502782348633,10.0556469727,1.0,0.0,0.0,0.0,1.0,0.0,0.0,0.0,1.0
1489584518733626150,8,1489584518729279906,,-62.0183105469,-8.69796466827,177.30116272,0.00256199995056,1.0,0.0,0.0,0.0,1.0,0.0,0.0,0.0,1.0,0.548780500889,0.12195122242,8.90243911743,1.0,0.0,0.0,0.0,1.0,0.0,0.0,0.0,1.0,0.201112939453,-0.411802685547,10.060435376,1.0,0.0,0.0,0.0,1.0,0.0,0.0,0.0,1.0
1489584518756442365,9,1489584518751486591,,-60.5153808594,-8.1487827301,175.851119995,0.0025349999778,1.0,0.0,0.0,0.0,1.0,0.0,0.0,0.0,1.0,0.243902444839,-1.8292683363,9.45121955872,1.0,0.0,0.0,0.0,1.0,0.0,0.0,0.0,1.0,0.560243188477,0.0143652099609,10.2088758789,1.0,0.0,0.0,0.0,1.0,0.0,0.0,0.0,1.0
1489584518774820826,10,1489584518772576819,,-59.0438232422,-7.52433633804,174.388748169,0.00271299993619,1.0,0.0,0.0,0.0,1.0,0.0,0.0,0.0,1.0,0.548780500889,-5.36585378647,9.08536529541,1.0,0.0,0.0,0.0,1.0,0.0,0.0,0.0,1.0,0.579396801758,0.45489831543,10.2280294922,1.0,0.0,0.0,0.0,1.0,0.0,0.0,0.0,1.0
1489584518801200786,11,1489584518799056779,,-57.4548454285,-6.83168077469,172.747161865,0.00707300007343,1.0,0.0,0.0,0.0,1.0,0.0,0.0,0.0,1.0,-0.609756112099,-10.9756097794,10.1219511032,1.0,0.0,0.0,0.0,1.0,0.0,0.0,0.0,1.0,0.215478149414,0.335188232422,10.0364933594,1.0,0.0,0.0,0.0,1.0,0.0,0.0,0.0,1.0
1489584518822607003,12,1489584518820877996,,-56.0903549194,-6.29722976685,171.306228638,0.00413999985904,1.0,0.0,0.0,0.0,1.0,0.0,0.0,0.0,1.0,-1.09756100178,-13.658536911,11.2195119858,1.0,0.0,0.0,0.0,1.0,0.0,0.0,0.0,1.0,0.622492431641,0.296881024126,10.1178962158,1.0,0.0,0.0,0.0,1.0,0.0,0.0,0.0,1.0
1489584518844820720,13,1489584518842761556,,-54.7316207886,-5.89659070969,170.098449707,0.00341199990362,1.0,0.0,0.0,0.0,1.0,0.0,0.0,0.0,1.0,-0.670731723309,-10.8536586761,13.1707324982,1.0,0.0,0.0,0.0,1.0,0.0,0.0,0.0,1.0,0.943315454102,-0.248996972656,10.1753570557,1.0,0.0,0.0,0.0,1.0,0.0,0.0,0.0,1.0
1489584518868969693,14,1489584518866537978,,-53.3757476807,-5.63341331482,168.941848755,0.00409100018442,1.0,0.0,0.0,0.0,1.0,0.0,0.0,0.0,1.0,-0.0609756112099,-10.6097564697,13.2926826477,1.0,0.0,0.0,0.0,1.0,0.0,0.0,0.0,1.0,1.23061965332,0.0335188255255,9.7827079834,1.0,0.0,0.0,0.0,1.0,0.0,0.0,0.0,1.0
1489584518894249707,15,1489584518893102052,,-51.896270752,-5.36322832108,167.603866577,0.00656299991533,1.0,0.0,0.0,0.0,1.0,0.0,0.0,0.0,1.0,-1.8292683363,-13.5975618362,8.71951198578,1.0,0.0,0.0,0.0,1.0,0.0,0.0,0.0,1.0,1.05823706072,-0.220266552734,9.96466730957,1.0,0.0,0.0,0.0,1.0,0.0,0.0,0.0,1.0
1489584518919679980,16,1489584518917905868,,-50.5981216431,-5.09555101395,166.337646484,0.00436699995771,1.0,0.0,0.0,0.0,1.0,0.0,0.0,0.0,1.0,-1.52439022064,-14.8170728683,7.43902492523,1.0,0.0,0.0,0.0,1.0,0.0,0.0,0.0,1.0,1.45567460937,-0.603338854892,10.0029745361,1.0,0.0,0.0,0.0,1.0,0.0,0.0,0.0,1.0
1489584518941416041,17,1489584518939333909,,-49.4300765991,-4.89485168457,165.285415649,0.00512300012633,1.0,0.0,0.0,0.0,1.0,0.0,0.0,0.0,1.0,-1.03658533096,-12.9268293381,7.98780536652,1.0,0.0,0.0,0.0,1.0,0.0,0.0,0.0,1.0,1.50355864258,-0.373495458984,10.1178962158,1.0,0.0,0.0,0.0,1.0,0.0,0.0,0.0,1.0
1489584518961317052,18,1489584518959335805,,-48.3406906128,-4.69763326645,164.288238525,0.00714300014079,1.0,0.0,0.0,0.0,1.0,0.0,0.0,0.0,1.0,-1.2195122242,-13.2926826477,7.92682981491,1.0,0.0,0.0,0.0,1.0,0.0,0.0,0.0,1.0,2.05901342773,-0.430956298828,10.0795889893,1.0,0.0,0.0,0.0,1.0,0.0,0.0,0.0,1.0
1489584518982843374,19,1489584518981227855,,-47.0918464661,-4.46773862839,163.184204102,0.00288700009696,1.0,0.0,0.0,0.0,1.0,0.0,0.0,0.0,1.0,-1.64634156227,-5.54878091812,7.74390268326,1.0,0.0,0.0,0.0,1.0,0.0,0.0,0.0,1.0,1.84353527832,-0.507570751953,10.2567599121,1.0,0.0,0.0,0.0,1.0,0.0,0.0,0.0,1.0
1489584519005267298,20,1489584519003617457,,-45.7663841248,-4.22128152847,162.162796021,0.0041579999961,1.0,0.0,0.0,0.0,1.0,0.0,0.0,0.0,1.0,-1.2195122242,-4.02439022064,7.98780536652,1.0,0.0,0.0,0.0,1.0,0.0,0.0,0.0,1.0,2.26012636719,-0.239420166016,10.165780249,1.0,0.0,0.0,0.0,1.0,0.0,0.0,0.0,1.0
1489584519026205339,21,1489584519024406383,,-44.4528541565,-3.88958859444,161.063461304,0.00250699999742,1.0,0.0,0.0,0.0,1.0,0.0,0.0,0.0,1.0,0.0,0.731707334518,4.51219558716,1.0,0.0,0.0,0.0,1.0,0.0,0.0,0.0,1.0,2.15478164027,-0.3064578125,10.2136642822,1.0,0.0,0.0,0.0,1.0,0.0,0.0,0.0,1.0
1489584519048123691,22,1489584519046494266,,-43.0637321472,-3.37872552872,159.810272217,0.00244399998337,1.0,0.0,0.0,0.0,1.0,0.0,0.0,0.0,1.0,-0.12195122242,0.670731723309,0.304878056049,1.0,0.0,0.0,0.0,1.0,0.0,0.0,0.0,1.0,1.99197578125,0.0622492431641,10.3333743652,1.0,0.0,0.0,0.0,1.0,0.0,0.0,0.0,1.0
1489584519070138605,23,1489584519068623920,,-41.7440567017,-2.79256820679,158.477096558,0.00250199995935,1.0,0.0,0.0,0.0,1.0,0.0,0.0,0.0,1.0,0.18292683363,3.29268312454,-2.92682933807,1.0,0.0,0.0,0.0,1.0,0.0,0.0,0.0,1.0,2.04943662109,0.00478840332031,10.2423947021,1.0,0.0,0.0,0.0,1.0,0.0,0.0,0.0,1.0
1489584519096144399,24,1489584519094641797,,-40.1877784729,-2.16999697685,157.115615845,0.00443599978462,1.0,0.0,0.0,0.0,1.0,0.0,0.0,0.0,1.0,0.426829278469,7.19512224197,-1.8292683363,1.0,0.0,0.0,0.0,1.0,0.0,0.0,0.0,1.0,1.63284553223,-0.105344873047,10.2040874756,1.0,0.0,0.0,0.0,1.0,0.0,0.0,0.0,1.0
1489584519118444833,25,1489584519117057231,,-38.5830879211,-1.62454617023,155.837783813,0.00466699991375,1.0,0.0,0.0,0.0,1.0,0.0,0.0,0.0,1.0,0.670731723309,9.14634132385,0.670731723309,1.0,0.0,0.0,0.0,1.0,0.0,0.0,0.0,1.0,1.70467158203,-0.191536132812,10.285490332,1.0,0.0,0.0,0.0,1.0,0.0,0.0,0.0,1.0
1489584519141392715,26,1489584519140003863,,-37.0831794739,-1.18871760368,154.723739624,0.00300700007938,1.0,0.0,0.0,0.0,1.0,0.0,0.0,0.0,1.0,1.52439022064,11.7073173523,0.731707334518,1.0,0.0,0.0,0.0,1.0,0.0,0.0,0.0,1.0,1.67594116211,-0.31124621582,10.1466266357,1.0,0.0,0.0,0.0,1.0,0.0,0.0,0.0,1.0
1489584519162921589,27,1489584519161536330,,-35.6190795898,-0.799033224583,153.6615448,0.00289799994789,1.0,0.0,0.0,0.0,1.0,0.0,0.0,0.0,1.0,0.548780500889,11.7073173523,-0.426829278469,1.0,0.0,0.0,0.0,1.0,0.0,0.0,0.0,1.0,1.51313544922,-0.426167895508,10.1322614258,1.0,0.0,0.0,0.0,1.0,0.0,0.0,0.0,1.0
1489584519184326868,28,1489584519182914058,,-34.16456604,-0.452932983637,152.668930054,0.00313999992795,1.0,0.0,0.0,0.0,1.0,0.0,0.0,0.0,1.0,0.609756112099,13.9024391174,-0.487804889679,1.0,0.0,0.0,0.0,1.0,0.0,0.0,0.0,1.0,1.5801730957,-0.488417138672,10.1274730225,1.0,0.0,0.0,0.0,1.0,0.0,0.0,0.0,1.0
1489584519207465583,29,1489584519205573919,,-32.6186294556,-0.0874515846372,151.674026489,0.0024230000563,1.0,0.0,0.0,0.0,1.0,0.0,0.0,0.0,1.0,0.426829278469,16.7073173523,-0.609756112099,1.0,0.0,0.0,0.0,1.0,0.0,0.0,0.0,1.0,1.46525141602,-0.301669427446,10.1083194092,1.0,0.0,0.0,0.0,1.0,0.0,0.0,0.0,1.0
1489584519230161434,30,1489584519228507895,,-31.16264534,0.257154136896,150.719284058,0.00288400007412,1.0,0.0,0.0,0.0,1.0,0.0,0.0,0.0,1.0,-0.304878056049,16.7073173523,-2.31707310677,1.0,0.0,0.0,0.0,1.0,0.0,0.0,0.0,1.0,1.02471831055,-0.258573779297,10.1131078125,1.0,0.0,0.0,0.0,1.0,0.0,0.0,0.0,1.0
1489584519253941606,31,1489584519250392497,,-29.7311306,0.61710870266,149.75112915,0.00352500006557,1.0,0.0,0.0,0.0,1.0,0.0,0.0,0.0,1.0,-0.0609756112099,14.3292694092,-4.63414621353,1.0,0.0,0.0,0.0,1.0,0.0,0.0,0.0,1.0,0.809240161133,-0.181959326172,10.1370498291,1.0,0.0,0.0,0.0,1.0,0.0,0.0,0.0,1.0
1489584519275798708,32,1489584519273532201,,-28.4360771179,0.967235565186,148.786422729,0.00394200021401,1.0,0.0,0.0,0.0,1.0,0.0,0.0,0.0,1.0,0.0,11.0975618362,-3.71951246262,1.0,0.0,0.0,0.0,1.0,0.0,0.0,0.0,1.0,0.751779321289,-0.105344873047,10.1178962158,1.0,0.0,0.0,0.0,1.0,0.0,0.0,0.0,1.0
1489584519298937162,33,1489584519297273259,,-27.2112255096,1.29408621788,147.895507812,0.00559299997985,1.0,0.0,0.0,0.0,1.0,0.0,0.0,0.0,1.0,-0.304878056049,10.7926826477,-3.35365867615,1.0,0.0,0.0,0.0,1.0,0.0,0.0,0.0,1.0,0.703895288086,-0.162805712891,9.94551369629,1.0,0.0,0.0,0.0,1.0,0.0,0.0,0.0,1.0
1489584519319795203,34,1489584519317812238,,-26.1805343628,1.53858923912,147.162734985,0.00311099993996,1.0,0.0,0.0,0.0,1.0,0.0,0.0,0.0,1.0,-0.304878056049,6.82926845551,-1.70731711388,1.0,0.0,0.0,0.0,1.0,0.0,0.0,0.0,1.0,0.143652099609,-0.0718260498047,10.1418382324,1.0,0.0,0.0,0.0,1.0,0.0,0.0,0.0,1.0
1489584519341650587,35,1489584519339777204,,-25.1209907532,1.78788554668,146.359054565,0.00407599983737,1.0,0.0,0.0,0.0,1.0,0.0,0.0,0.0,1.0,-0.365853667259,2.37804889679,-1.58536589146,1.0,0.0,0.0,0.0,1.0,0.0,0.0,0.0,1.0,0.60812722168,-0.316034619141,10.1897222656,1.0,0.0,0.0,0.0,1.0,0.0,0.0,0.0,1.0
1489584519367220860,36,1489584519362475555,,-24.1749916077,1.98357880116,145.652664185,0.00456100003794,1.0,0.0,0.0,0.0,1.0,0.0,0.0,0.0,1.0,-0.365853667259,-0.304878056049,-0.914634168148,1.0,0.0,0.0,0.0,1.0,0.0,0.0,0.0,1.0,0.440533105469,-0.325611425781,10.0029745361,1.0,0.0,0.0,0.0,1.0,0.0,0.0,0.0,1.0
1489584519388815723,37,1489584519383823543,,-23.449174881,2.15788197517,144.991897583,0.00262799998745,1.0,0.0,0.0,0.0,1.0,0.0,0.0,0.0,1.0,-0.0609756112099,-4.75609779358,0.548780500889,1.0,0.0,0.0,0.0,1.0,0.0,0.0,0.0,1.0,0.560243188477,0.0622492431641,10.180145459,1.0,0.0,0.0,0.0,1.0,0.0,0.0,0.0,1.0
1489584519407959340,38,1489584519405800958,,-22.8437995911,2.32705521584,144.418716431,0.00284099997953,1.0,0.0,0.0,0.0,1.0,0.0,0.0,0.0,1.0,-0.975609779358,-4.45121955872,2.98780488968,1.0,0.0,0.0,0.0,1.0,0.0,0.0,0.0,1.0,0.900219824219,0.0239420166016,10.1226846191,1.0,0.0,0.0,0.0,1.0,0.0,0.0,0.0,1.0
1489584519430553524,39,1489584519428306080,,-22.3134269714,2.47535347939,143.881607056,0.00308499997482,1.0,0.0,0.0,0.0,1.0,0.0,0.0,0.0,1.0,-0.731707334518,-5.48780488968,1.76829278469,1.0,0.0,0.0,0.0,1.0,0.0,0.0,0.0,1.0,0.651222851562,-0.148440512063,10.2280294922,1.0,0.0,0.0,0.0,1.0,0.0,0.0,0.0,1.0
1489584519453653385,40,1489584519450278181,,-21.7597846985,2.62771677971,143.242996216,0.00357800000347,1.0,0.0,0.0,0.0,1.0,0.0,0.0,0.0,1.0,-0.853658556938,-7.86585378647,-1.76829278469,1.0,0.0,0.0,0.0,1.0,0.0,0.0,0.0,1.0,1.02471831055,-0.316034619141,10.1897222656,1.0,0.0,0.0,0.0,1.0,0.0,0.0,0.0,1.0
1489584519474575644,41,1489584519472240335,,-21.1738872528,2.75916671753,142.588043213,0.00275800004601,1.0,0.0,0.0,0.0,1.0,0.0,0.0,0.0,1.0,-0.304878056049,-6.7682929039,1.15853655338,1.0,0.0,0.0,0.0,1.0,0.0,0.0,0.0,1.0,1.35032973633,-0.555454785156,10.046070166,1.0,0.0,0.0,0.0,1.0,0.0,0.0,0.0,1.0
1489584519497667484,42,1489584519495723112,,-20.5943393707,2.8532409668,142.003128052,0.00423400010914,1.0,0.0,0.0,0.0,1.0,0.0,0.0,0.0,1.0,-0.365853667259,-6.89024400711,1.95121955872,1.0,0.0,0.0,0.0,1.0,0.0,0.0,0.0,1.0,1.31681091309,-0.512359155273,10.0891657959,1.0,0.0,0.0,0.0,1.0,0.0,0.0,0.0,1.0
1489584519519868075,43,1489584519517218183,,-20.1044425964,2.95139336586,141.439788818,0.00281199999154,1.0,0.0,0.0,0.0,1.0,0.0,0.0,0.0,1.0,-0.914634168148,-5.85365867615,0.0609756112099,1.0,0.0,0.0,0.0,1.0,0.0,0.0,0.0,1.0,1.44609780273,-0.263362164351,10.060435376,1.0,0.0,0.0,0.0,1.0,0.0,0.0,0.0,1.0
1489584519540552054,44,1489584519538640859,,-19.6377258301,3.06198239326,140.856445312,0.00295999995433,1.0,0.0,0.0,0.0,1.0,0.0,0.0,0.0,1.0,-0.12195122242,-5.0,-0.12195122242,1.0,0.0,0.0,0.0,1.0,0.0,0.0,0.0,1.0,1.61369191895,-0.191536132812,10.3094323486,1.0,0.0,0.0,0.0,1.0,0.0,0.0,0.0,1.0
1489584519562741604,45,1489584519560577024,,-19.2160568237,3.16490960121,140.374649048,0.00359200011007,1.0,0.0,0.0,0.0,1.0,0.0,0.0,0.0,1.0,-0.304878056049,-2.43902444839,-0.365853667259,1.0,0.0,0.0,0.0,1.0,0.0,0.0,0.0,1.0,1.70945998535,-0.124498486328,10.2280294922,1.0,0.0,0.0,0.0,1.0,0.0,0.0,0.0,1.0
1489584519583487718,46,1489584519581538919,,-18.7396259308,3.24793767929,139.868057251,0.00540699996054,1.0,0.0,0.0,0.0,1.0,0.0,0.0,0.0,1.0,-0.670731723309,-0.548780500889,-0.487804889679,1.0,0.0,0.0,0.0,1.0,0.0,0.0,0.0,1.0,1.62805712891,-0.0861912597656,10.2376062988,1.0,0.0,0.0,0.0,1.0,0.0,0.0,0.0,1.0
1489584519604553727,47,1489584519602884615,,-18.2503128052,3.3150472641,139.397064209,0.00322300009429,1.0,0.0,0.0,0.0,1.0,0.0,0.0,0.0,1.0,-0.243902444839,2.13414645195,0.18292683363,1.0,0.0,0.0,0.0,1.0,0.0,0.0,0.0,1.0,1.74297880859,-0.234631762695,10.314220752,1.0,0.0,0.0,0.0,1.0,0.0,0.0,0.0,1.0
1489584519626953120,48,1489584519625102811,,-17.7042675018,3.39102721214,138.914108276,0.00300000002608,1.0,0.0,0.0,0.0,1.0,0.0,0.0,0.0,1.0,-0.365853667259,3.59756112099,-0.853658556938,1.0,0.0,0.0,0.0,1.0,0.0,0.0,0.0,1.0,1.32638771973,-0.325611425781,10.0077629395,1.0,0.0,0.0,0.0,1.0,0.0,0.0,0.0,1.0
1489584519648203348,49,1489584519646526945,,-17.1975650787,3.46189713478,138.484939575,0.0027799999807,1.0,0.0,0.0,0.0,1.0,0.0,0.0,0.0,1.0,-0.426829278469,3.41463422775,-1.52439022064,1.0,0.0,0.0,0.0,1.0,0.0,0.0,0.0,1.0,0.699106884766,-0.143652099609,9.95987890625,1.0,0.0,0.0,0.0,1.0,0.0,0.0,0.0,1.0
1489584519679097572,50,1489584519669359201,,-16.6500797272,3.53275609016,138.022262573,0.00265599996783,1.0,0.0,0.0,0.0,1.0,0.0,0.0,0.0,1.0,-0.243902444839,2.13414645195,-0.548780500889,1.0,0.0,0.0,0.0,1.0,0.0,0.0,0.0,1.0,1.30244570312,-0.354341845703,10.2423947021,1.0,0.0,0.0,0.0,1.0,0.0,0.0,0.0,1.0
1489584519695890619,51,1489584519694258643,,-16.1586799622,3.58835601807,137.624954224,0.00366499996744,1.0,0.0,0.0,0.0,1.0,0.0,0.0,0.0,1.0,-0.426829278469,2.19512200356,0.12195122242,1.0,0.0,0.0,0.0,1.0,0.0,0.0,0.0,1.0,1.20667770978,-0.296881024126,10.1945106689,1.0,0.0,0.0,0.0,1.0,0.0,0.0,0.0,1.0
1489584519715865953,52,1489584519714341529,,-15.7114543915,3.62144470215,137.232254028,0.00394599977881,1.0,0.0,0.0,0.0,1.0,0.0,0.0,0.0,1.0,-0.304878056049,1.2195122242,-0.18292683363,1.0,0.0,0.0,0.0,1.0,0.0,0.0,0.0,1.0,1.30244570312,-0.330399829102,10.1274730225,1.0,0.0,0.0,0.0,1.0,0.0,0.0,0.0,1.0
1489584519735483476,53,1489584519734129728,,-15.3230800629,3.64806199074,136.877807617,0.00293800001964,1.0,0.0,0.0,0.0,1.0,0.0,0.0,0.0,1.0,-0.243902444839,1.40243899822,-0.609756112099,1.0,0.0,0.0,0.0,1.0,0.0,0.0,0.0,1.0,1.30723410645,-0.421379492187,10.314220752,1.0,0.0,0.0,0.0,1.0,0.0,0.0,0.0,1.0
1489584519757447973,54,1489584519755366883,,-14.9300127029,3.68000984192,136.508499146,0.00261699990369,1.0,0.0,0.0,0.0,1.0,0.0,0.0,0.0,1.0,-0.18292683363,1.03658533096,-0.304878056049,1.0,0.0,0.0,0.0,1.0,0.0,0.0,0.0,1.0,1.25456166992,-0.320823022461,10.1705686523,1.0,0.0,0.0,0.0,1.0,0.0,0.0,0.0,1.0
1489584519779657054,55,1489584519777725703,,-14.5591068268,3.69972491264,136.139816284,0.0037420000881,1.0,0.0,0.0,0.0,1.0,0.0,0.0,0.0,1.0,0.12195122242,1.46341466904,-0.548780500889,1.0,0.0,0.0,0.0,1.0,0.0,0.0,0.0,1.0,1.34554133301,-0.244208569336,10.2567599121,1.0,0.0,0.0,0.0,1.0,0.0,0.0,0.0,1.0
1489584519800674730,56,1489584519799203483,,-14.2246227264,3.71337747574,135.828872681,0.00427100015804,1.0,0.0,0.0,0.0,1.0,0.0,0.0,0.0,1.0,0.304878056049,1.8902438879,-0.853658556938,1.0,0.0,0.0,0.0,1.0,0.0,0.0,0.0,1.0,1.28329208984,-0.067037651051,10.1609918457,1.0,0.0,0.0,0.0,1.0,0.0,0.0,0.0,1.0
1489584519822676780,57,1489584519820799752,,-13.9193105698,3.72493052483,135.553894043,0.0040119998157,1.0,0.0,0.0,0.0,1.0,0.0,0.0,0.0,1.0,0.426829278469,3.53658556938,-0.548780500889,1.0,0.0,0.0,0.0,1.0,0.0,0.0,0.0,1.0,1.51792385254,-0.119710083008,10.2376062988,1.0,0.0,0.0,0.0,1.0,0.0,0.0,0.0,1.0
1489584519843646852,58,1489584519840163108,,-13.5898532867,3.73405599594,135.27923584,0.00455000018701,1.0,0.0,0.0,0.0,1.0,0.0,0.0,0.0,1.0,0.243902444839,4.20731735229,-0.670731723309,1.0,0.0,0.0,0.0,1.0,0.0,0.0,0.0,1.0,1.52750065918,-0.119710083008,10.1753570557,1.0,0.0,0.0,0.0,1.0,0.0,0.0,0.0,1.0
1489584519864443435,59,1489584519862756094,,-13.2202091217,3.72939133644,134.992340088,0.00350299989805,1.0,0.0,0.0,0.0,1.0,0.0,0.0,0.0,1.0,0.243902444839,4.57317066193,-0.853658556938,1.0,0.0,0.0,0.0,1.0,0.0,0.0,0.0,1.0,1.16358193377,-0.277727392578,10.0077629395,1.0,0.0,0.0,0.0,1.0,0.0,0.0,0.0,1.0
1489584519884678977,60,1489584519883049084,,-12.8928365707,3.71563792229,134.745117188,0.00284099997953,1.0,0.0,0.0,0.0,1.0,0.0,0.0,0.0,1.0,0.0,3.96341490746,-0.609756112099,1.0,0.0,0.0,0.0,1.0,0.0,0.0,0.0,1.0,1.25935007324,-0.292092584273,9.98382092285,1.0,0.0,0.0,0.0,1.0,0.0,0.0,0.0,1.0
1489584519906341809,61,1489584519904099677,,-12.5860157013,3.68729662895,134.512084961,0.00374000007287,1.0,0.0,0.0,0.0,1.0,0.0,0.0,0.0,1.0,-0.304878056049,3.65853667259,-0.304878056049,1.0,0.0,0.0,0.0,1.0,0.0,0.0,0.0,1.0,1.12048637695,-0.277727392578,10.046070166,1.0,0.0,0.0,0.0,1.0,0.0,0.0,0.0,1.0
1489584519931361823,62,1489584519929423857,,-12.2368240356,3.66051530838,134.226531982,0.00904699973762,1.0,0.0,0.0,0.0,1.0,0.0,0.0,0.0,1.0,-0.18292683363,2.86585378647,-0.426829278469,1.0,0.0,0.0,0.0,1.0,0.0,0.0,0.0,1.0,1.30723410645,-0.397437475586,10.165780249,1.0,0.0,0.0,0.0,1.0,0.0,0.0,0.0,1.0
1489584519952564186,63,1489584519950785283,,-11.9419345856,3.63397097588,133.980361938,0.00278400001116,1.0,0.0,0.0,0.0,1.0,0.0,0.0,0.0,1.0,0.0,2.43902444839,-0.12195122242,1.0,0.0,0.0,0.0,1.0,0.0,0.0,0.0,1.0,1.30723410645,-0.225054956055,10.1418382324,1.0,0.0,0.0,0.0,1.0,0.0,0.0,0.0,1.0
1489584519973963476,64,1489584519972392750,,-11.6884899139,3.60593795776,133.770202637,0.002831999911,1.0,0.0,0.0,0.0,1.0,0.0,0.0,0.0,1.0,-0.0609756112099,2.86585378647,-0.426829278469,1.0,0.0,0.0,0.0,1.0,0.0,0.0,0.0,1.0,1.22583125,-0.167594116211,10.1992990723,1.0,0.0,0.0,0.0,1.0,0.0,0.0,0.0,1.0
1489584519996152765,65,1489584519994058498,,-11.4541215897,3.57599520683,133.558288574,0.00303400005214,1.0,0.0,0.0,0.0,1.0,0.0,0.0,0.0,1.0,-0.18292683363,2.86585378647,-0.304878056049,1.0,0.0,0.0,0.0,1.0,0.0,0.0,0.0,1.0,1.20188930646,-0.229843359375,10.2567599121,1.0,0.0,0.0,0.0,1.0,0.0,0.0,0.0,1.0
1489584520019426376,66,1489584520016686067,,-11.2134017944,3.54551506042,133.352203369,0.00283999997191,1.0,0.0,0.0,0.0,1.0,0.0,0.0,0.0,1.0,-0.12195122242,2.56097555161,-0.487804889679,1.0,0.0,0.0,0.0,1.0,0.0,0.0,0.0,1.0,1.22104284668,-0.220266552734,10.060435376,1.0,0.0,0.0,0.0,1.0,0.0,0.0,0.0,1.0
1489584520040204365,67,1489584520037453588,,-10.9928016663,3.51469540596,133.160232544,0.00302199996077,1.0,0.0,0.0,0.0,1.0,0.0,0.0,0.0,1.0,0.304878056049,2.56097555161,-0.243902444839,1.0,0.0,0.0,0.0,1.0,0.0,0.0,0.0,1.0,1.32159931641,-0.244208569336,10.1418382324,1.0,0.0,0.0,0.0,1.0,0.0,0.0,0.0,1.0
1489584520061457874,68,1489584520058631368,,-10.7696990967,3.4739356041,132.967163086,0.00305099994875,1.0,0.0,0.0,0.0,1.0,0.0,0.0,0.0,1.0,0.12195122242,2.31707310677,-0.365853667259,1.0,0.0,0.0,0.0,1.0,0.0,0.0,0.0,1.0,1.35511813965,-0.3064578125,10.165780249,1.0,0.0,0.0,0.0,1.0,0.0,0.0,0.0,1.0
1489584520082805185,69,1489584520080496751,,-10.5481901169,3.44284057617,132.779403687,0.00349900010042,1.0,0.0,0.0,0.0,1.0,0.0,0.0,0.0,1.0,0.18292683363,2.86585378647,-0.609756112099,1.0,0.0,0.0,0.0,1.0,0.0,0.0,0.0,1.0,1.44609780273,-0.114921679688,10.1992990723,1.0,0.0,0.0,0.0,1.0,0.0,0.0,0.0,1.0
1489584520104351715,70,1489584520101831094,,-10.3361949921,3.40802335739,132.583709717,0.00374400010332,1.0,0.0,0.0,0.0,1.0,0.0,0.0,0.0,1.0,-0.0609756112099,2.5,-0.609756112099,1.0,0.0,0.0,0.0,1.0,0.0,0.0,0.0,1.0,1.25456166992,-0.210689746094,10.1514150391,1.0,0.0,0.0,0.0,1.0,0.0,0.0,0.0,1.0
1489584520127076524,71,1489584520124404549,,-10.1184940338,3.35862445831,132.388549805,0.00259799999185,1.0,0.0,0.0,0.0,1.0,0.0,0.0,0.0,1.0,-0.304878056049,3.17073178291,0.18292683363,1.0,0.0,0.0,0.0,1.0,0.0,0.0,0.0,1.0,1.12048637695,-0.349553442383,10.1609918457,1.0,0.0,0.0,0.0,1.0,0.0,0.0,0.0,1.0
1489584520149255605,72,1489584520146842900,,-9.92850971222,3.3026099205,132.233917236,0.00253800000064,1.0,0.0,0.0,0.0,1.0,0.0,0.0,0.0,1.0,-0.426829278469,2.74390244484,0.0609756112099,1.0,0.0,0.0,0.0,1.0,0.0,0.0,0.0,1.0,1.14442839355,-0.210689746094,10.1418382324,1.0,0.0,0.0,0.0,1.0,0.0,0.0,0.0,1.0
1489584520169784532,73,1489584520167041619,,-9.74677085876,3.26733446121,132.045181274,0.00346400006674,1.0,0.0,0.0,0.0,1.0,0.0,0.0,0.0,1.0,-0.670731723309,2.31707310677,-0.243902444839,1.0,0.0,0.0,0.0,1.0,0.0,0.0,0.0,1.0,1.05823706072,-0.177170922852,9.97903251953,1.0,0.0,0.0,0.0,1.0,0.0,0.0,0.0,1.0
1489584520193579704,74,1489584520190478146,,-9.56310653687,3.21354269981,131.855407715,0.00311299995519,1.0,0.0,0.0,0.0,1.0,0.0,0.0,0.0,1.0,-0.304878056049,1.8902438879,0.0,1.0,0.0,0.0,0.0,1.0,0.0,0.0,0.0,1.0,1.42215578613,-0.411802685547,10.1992990723,1.0,0.0,0.0,0.0,1.0,0.0,0.0,0.0,1.0
1489584520214048891,75,1489584520212456915,,-9.39764022827,3.146733284,131.712631226,0.00255899992771,1.0,0.0,0.0,0.0,1.0,0.0,0.0,0.0,1.0,0.0609756112099,2.5,-0.365853667259,1.0,0.0,0.0,0.0,1.0,0.0,0.0,0.0,1.0,1.37906015625,-0.335188232422,10.0843773926,1.0,0.0,0.0,0.0,1.0,0.0,0.0,0.0,1.0
1489584520237953855,76,1489584520235073755,,-9.23926448822,3.08752727509,131.551467896,0.00258200010285,1.0,0.0,0.0,0.0,1.0,0.0,0.0,0.0,1.0,-0.0609756112099,2.98780488968,-0.853658556938,1.0,0.0,0.0,0.0,1.0,0.0,0.0,0.0,1.0,1.25456166992,-0.3064578125,10.0029745361,1.0,0.0,0.0,0.0,1.0,0.0,0.0,0.0,1.0
1489584520261096059,77,1489584520258772313,,-9.08390712738,3.016289711,131.414993286,0.00295399990864,1.0,0.0,0.0,0.0,1.0,0.0,0.0,0.0,1.0,-0.0609756112099,2.74390244484,-0.548780500889,1.0,0.0,0.0,0.0,1.0,0.0,0.0,0.0,1.0,1.26892687988,-0.363918652344,10.046070166,1.0,0.0,0.0,0.0,1.0,0.0,0.0,0.0,1.0
1489584520282011340,78,1489584520279881551,,-8.94978809357,2.95725154877,131.314056396,0.00359100010246,1.0,0.0,0.0,0.0,1.0,0.0,0.0,0.0,1.0,0.365853667259,2.80487799644,-0.365853667259,1.0,0.0,0.0,0.0,1.0,0.0,0.0,0.0,1.0,1.32159931641,-0.181959326172,10.1131078125,1.0,0.0,0.0,0.0,1.0,0.0,0.0,0.0,1.0
1489584520304176827,79,1489584520302598496,,-8.8000869751,2.89546728134,131.21534729,0.00370800006203,1.0,0.0,0.0,0.0,1.0,0.0,0.0,0.0,1.0,0.0,4.20731735229,-0.304878056049,1.0,0.0,0.0,0.0,1.0,0.0,0.0,0.0,1.0,1.25935007324,-0.162805712891,10.0556469727,1.0,0.0,0.0,0.0,1.0,0.0,0.0,0.0,1.0
1489584520326313720,80,1489584520324592889,,-8.66626167297,2.8243253231,131.171081543,0.00251400005072,1.0,0.0,0.0,0.0,1.0,0.0,0.0,0.0,1.0,-0.18292683363,4.32926845551,-0.731707334518,1.0,0.0,0.0,0.0,1.0,0.0,0.0,0.0,1.0,1.09654436035,-0.3064578125,9.89762966309,1.0,0.0,0.0,0.0,1.0,0.0,0.0,0.0,1.0
1489584520346855460,81,1489584520345139525,,-8.54042720795,2.74651122093,131.126922607,0.00334000005387,1.0,0.0,0.0,0.0,1.0,0.0,0.0,0.0,1.0,-0.243902444839,3.90243911743,-0.914634168148,1.0,0.0,0.0,0.0,1.0,0.0,0.0,0.0,1.0,1.06302561017,-0.363918652344,10.0652237793,1.0,0.0,0.0,0.0,1.0,0.0,0.0,0.0,1.0
1489584520371437193,82,1489584520369168446,,-8.41135692596,2.65645456314,131.106826782,0.00285899988376,1.0,0.0,0.0,0.0,1.0,0.0,0.0,0.0,1.0,-0.365853667259,1.95121955872,-1.40243899822,1.0,0.0,0.0,0.0,1.0,0.0,0.0,0.0,1.0,0.938527050781,-0.244208569336,10.1753570557,1.0,0.0,0.0,0.0,1.0,0.0,0.0,0.0,1.0
1489584520394257471,83,1489584520391891901,,-8.32317638397,2.57165169716,131.102996826,0.00384899997152,1.0,0.0,0.0,0.0,1.0,0.0,0.0,0.0,1.0,-0.18292683363,-0.12195122242,-0.853658556938,1.0,0.0,0.0,0.0,1.0,0.0,0.0,0.0,1.0,1.06781401349,-0.301669427446,10.1274730225,1.0,0.0,0.0,0.0,1.0,0.0,0.0,0.0,1.0
1489584520415955771,84,1489584520413052077,,-8.2828168869,2.48825025558,131.11857605,0.00292999995872,1.0,0.0,0.0,0.0,1.0,0.0,0.0,0.0,1.0,-0.0609756112099,-1.2195122242,0.0609756112099,1.0,0.0,0.0,0.0,1.0,0.0,0.0,0.0,1.0,0.972045874023,-0.0622492431641,10.0221281494,1.0,0.0,0.0,0.0,1.0,0.0,0.0,0.0,1.0
1489584520438972715,85,1489584520437089801,,-8.29117488861,2.40168595314,131.16519165,0.00292199989781,1.0,0.0,0.0,0.0,1.0,0.0,0.0,0.0,1.0,-0.243902444839,-2.62195134163,-0.12195122242,1.0,0.0,0.0,0.0,1.0,0.0,0.0,0.0,1.0,1.09175595703,-0.124498486328,10.1131078125,1.0,0.0,0.0,0.0,1.0,0.0,0.0,0.0,1.0
1489584520461069504,86,1489584520458842841,,-8.32818889618,2.32871675491,131.174468994,0.0041809999384,1.0,0.0,0.0,0.0,1.0,0.0,0.0,0.0,1.0,-0.12195122242,-4.51219558716,-0.670731723309,1.0,0.0,0.0,0.0,1.0,0.0,0.0,0.0,1.0,1.10133276367,-0.268150604204,10.1322614258,1.0,0.0,0.0,0.0,1.0,0.0,0.0,0.0,1.0
1489584520482416555,87,1489584520480467964,,-8.40086650848,2.24393510818,131.263778687,0.00408399989828,1.0,0.0,0.0,0.0,1.0,0.0,0.0,0.0,1.0,0.243902444839,-5.06097555161,0.609756112099,1.0,0.0,0.0,0.0,1.0,0.0,0.0,0.0,1.0,1.20188930646,-0.229843359375,10.0317049561,1.0,0.0,0.0,0.0,1.0,0.0,0.0,0.0,1.0
1489584520505422874,88,1489584520503291992,,-8.49141311646,2.16174483299,131.335494995,0.00357900001109,1.0,0.0,0.0,0.0,1.0,0.0,0.0,0.0,1.0,0.243902444839,-5.12195110321,0.853658556938,1.0,0.0,0.0,0.0,1.0,0.0,0.0,0.0,1.0,1.25935007324,-0.325611425781,10.1131078125,1.0,0.0,0.0,0.0,1.0,0.0,0.0,0.0,1.0
1489584520526358675,89,1489584520524234252,,-8.60832977295,2.07843875885,131.401519775,0.00328899989836,1.0,0.0,0.0,0.0,1.0,0.0,0.0,0.0,1.0,0.18292683363,-4.32926845551,0.609756112099,1.0,0.0,0.0,0.0,1.0,0.0,0.0,0.0,1.0,1.50355864258,-0.172382519531,10.1226846191,1.0,0.0,0.0,0.0,1.0,0.0,0.0,0.0,1.0
1489584520550103170,90,1489584520548166611,,-8.70860099792,2.00139522552,131.429992676,0.00278099998832,1.0,0.0,0.0,0.0,1.0,0.0,0.0,0.0,1.0,0.0609756112099,-2.19512200356,1.09756100178,1.0,0.0,0.0,0.0,1.0,0.0,0.0,0.0,1.0,1.66636435547,-0.248996972656,10.0939541992,1.0,0.0,0.0,0.0,1.0,0.0,0.0,0.0,1.0
1489584520571866210,91,1489584520569458870,,-8.75499343872,1.93422615528,131.488922119,0.00330400001258,1.0,0.0,0.0,0.0,1.0,0.0,0.0,0.0,1.0,0.609756112099,0.975609779358,-0.18292683363,1.0,0.0,0.0,0.0,1.0,0.0,0.0,0.0,1.0,1.90099611816,-0.263362164351,10.1226846191,1.0,0.0,0.0,0.0,1.0,0.0,0.0,0.0,1.0
1489584520594586123,92,1489584520592062846,,-8.74165058136,1.89351475239,131.54486084,0.00354599999264,1.0,0.0,0.0,0.0,1.0,0.0,0.0,0.0,1.0,0.365853667259,3.10975623131,-0.365853667259,1.0,0.0,0.0,0.0,1.0,0.0,0.0,0.0,1.0,1.84832368164,0.143652099609,10.2232410889,1.0,0.0,0.0,0.0,1.0,0.0,0.0,0.0,1.0
1489584520614498228,93,1489584520611735629,,-8.66186714172,1.86898970604,131.612670898,0.00273799989372,1.0,0.0,0.0,0.0,1.0,0.0,0.0,0.0,1.0,0.914634168148,5.85365867615,-1.2195122242,1.0,0.0,0.0,0.0,1.0,0.0,0.0,0.0,1.0,1.40300217285,0.143652099609,10.2184526855,1.0,0.0,0.0,0.0,1.0,0.0,0.0,0.0,1.0
1489584520637722568,94,1489584520635558509,,-8.51636219025,1.8431776762,131.640640259,0.00278900004923,1.0,0.0,0.0,0.0,1.0,0.0,0.0,0.0,1.0,0.304878056049,5.0,-0.365853667259,1.0,0.0,0.0,0.0,1.0,0.0,0.0,0.0,1.0,1.20667770978,-0.0335188255255,10.0843773926,1.0,0.0,0.0,0.0,1.0,0.0,0.0,0.0,1.0
1489584520658473734,95,1489584520656354675,,-8.35781955719,1.81349360943,131.590530396,0.00306400004774,1.0,0.0,0.0,0.0,1.0,0.0,0.0,0.0,1.0,0.243902444839,5.18292713165,0.365853667259,1.0,0.0,0.0,0.0,1.0,0.0,0.0,0.0,1.0,1.14442839355,-0.215478149414,10.0652237793,1.0,0.0,0.0,0.0,1.0,0.0,0.0,0.0,1.0
1489584520680665523,96,1489584520678674745,,-8.19368171692,1.75324761868,131.518676758,0.00355100003071,1.0,0.0,0.0,0.0,1.0,0.0,0.0,0.0,1.0,-0.0609756112099,2.98780488968,0.304878056049,1.0,0.0,0.0,0.0,1.0,0.0,0.0,0.0,1.0,1.1875240965,-0.440533105469,10.1992990723,1.0,0.0,0.0,0.0,1.0,0.0,0.0,0.0,1.0
1489584520705789548,97,1489584520699201693,,-8.07934379578,1.65811550617,131.436523438,0.00364300003275,1.0,0.0,0.0,0.0,1.0,0.0,0.0,0.0,1.0,-0.243902444839,0.792682945728,-0.670731723309,1.0,0.0,0.0,0.0,1.0,0.0,0.0,0.0,1.0,1.12048637695,-0.823605371094,9.98382092285,1.0,0.0,0.0,0.0,1.0,0.0,0.0,0.0,1.0
1489584520722643689,98,1489584520720481244,,-8.00373077393,1.56250703335,131.314834595,0.00360399996862,1.0,0.0,0.0,0.0,1.0,0.0,0.0,0.0,1.0,-0.426829278469,-2.31707310677,-2.37804889679,1.0,0.0,0.0,0.0,1.0,0.0,0.0,0.0,1.0,0.833182177734,-0.574608398438,10.1897222656,1.0,0.0,0.0,0.0,1.0,0.0,0.0,0.0,1.0
1489584520746523704,99,1489584520744064593,,-7.99570512772,1.48201835155,131.154693604,0.00328899989836,1.0,0.0,0.0,0.0,1.0,0.0,0.0,0.0,1.0,-0.914634168148,-6.64634132385,-1.70731711388,1.0,0.0,0.0,0.0,1.0,0.0,0.0,0.0,1.0,0.708683691406,-0.402225878906,9.94551369629,1.0,0.0,0.0,0.0,1.0,0.0,0.0,0.0,1.0
1489584520766771330,100,1489584520764413312,,-8.08013439178,1.40801000595,131.051544189,0.00322300009429,1.0,0.0,0.0,0.0,1.0,0.0,0.0,0.0,1.0,-0.670731723309,-9.39024448395,0.853658556938,1.0,0.0,0.0,0.0,1.0,0.0,0.0,0.0,1.0,0.938527050781,-0.296881024126,10.1178962158,1.0,0.0,0.0,0.0,1.0,0.0,0.0,0.0,1.0
1489584520790302544,101,1489584520786761403,,-8.27310371399,1.3312920332,131.029251099,0.0029720000457,1.0,0.0,0.0,0.0,1.0,0.0,0.0,0.0,1.0,-1.40243899822,-11.9512195587,1.34146344662,1.0,0.0,0.0,0.0,1.0,0.0,0.0,0.0,1.0,1.25456166992,-0.124498486328,10.060435376,1.0,0.0,0.0,0.0,1.0,0.0,0.0,0.0,1.0
1489584520811402720,102,1489584520809000276,,-8.58391475677,1.25546824932,131.077011108,0.00371300010011,1.0,0.0,0.0,0.0,1.0,0.0,0.0,0.0,1.0,-1.03658533096,-11.8902444839,0.18292683363,1.0,0.0,0.0,0.0,1.0,0.0,0.0,0.0,1.0,1.87226569824,-0.162805712891,10.165780249,1.0,0.0,0.0,0.0,1.0,0.0,0.0,0.0,1.0
1489584520832296386,103,1489584520829703786,,-8.84807491302,1.20266199112,131.170715332,0.00298000010662,1.0,0.0,0.0,0.0,1.0,0.0,0.0,0.0,1.0,-0.731707334518,-9.39024448395,0.0,1.0,0.0,0.0,0.0,1.0,0.0,0.0,0.0,1.0,2.13562802699,-0.0191536132812,10.1562034424,1.0,0.0,0.0,0.0,1.0,0.0,0.0,0.0,1.0
1489584520854297550,104,1489584520850746254,,-9.06418418884,1.16758918762,131.305526733,0.0028230000753,1.0,0.0,0.0,0.0,1.0,0.0,0.0,0.0,1.0,-0.609756112099,-7.19512224197,-0.548780500889,1.0,0.0,0.0,0.0,1.0,0.0,0.0,0.0,1.0,2.11168571813,0.00957680664062,10.1035310059,1.0,0.0,0.0,0.0,1.0,0.0,0.0,0.0,1.0
1489584520874531998,105,1489584520871656482,,-9.22269630432,1.13435029984,131.454788208,0.00314099993557,1.0,0.0,0.0,0.0,1.0,0.0,0.0,0.0,1.0,-0.426829278469,-4.14634132385,-0.12195122242,1.0,0.0,0.0,0.0,1.0,0.0,0.0,0.0,1.0,1.99197578125,0.143652099609,10.0652237793,1.0,0.0,0.0,0.0,1.0,0.0,0.0,0.0,1.0
1489584520898234098,106,1489584520895644935,,-9.32920646667,1.06118345261,131.619293213,0.00448600016534,1.0,0.0,0.0,0.0,1.0,0.0,0.0,0.0,1.0,-0.12195122242,-2.43902444839,0.304878056049,1.0,0.0,0.0,0.0,1.0,0.0,0.0,0.0,1.0,1.75734401855,-0.292092584273,10.1035310059,1.0,0.0,0.0,0.0,1.0,0.0,0.0,0.0,1.0
1489584520919533909,107,1489584520916880684,,-9.41159439087,0.970145583153,131.721969604,0.00318800006062,1.0,0.0,0.0,0.0,1.0,0.0,0.0,0.0,1.0,-0.243902444839,-1.2195122242,0.487804889679,1.0,0.0,0.0,0.0,1.0,0.0,0.0,0.0,1.0,1.96324536133,-0.497993945312,10.0412817627,1.0,0.0,0.0,0.0,1.0,0.0,0.0,0.0,1.0
1489584520940952887,108,1489584520939015754,,-9.46201992035,0.888691306114,131.865814209,0.00382400001399,1.0,0.0,0.0,0.0,1.0,0.0,0.0,0.0,1.0,0.243902444839,0.548780500889,-0.0609756112099,1.0,0.0,0.0,0.0,1.0,0.0,0.0,0.0,1.0,2.08774370153,-0.387860668945,10.0029745361,1.0,0.0,0.0,0.0,1.0,0.0,0.0,0.0,1.0
1489584520963675092,109,1489584520960757857,,-9.4712228775,0.835983157158,131.980545044,0.00415199995041,1.0,0.0,0.0,0.0,1.0,0.0,0.0,0.0,1.0,0.0609756112099,2.62195134163,-1.03658533096,1.0,0.0,0.0,0.0,1.0,0.0,0.0,0.0,1.0,2.01591779785,-0.124498486328,10.2423947021,1.0,0.0,0.0,0.0,1.0,0.0,0.0,0.0,1.0
1489584520984547352,110,1489584520982614490,,-9.42926597595,0.784639358521,132.088012695,0.00314399995841,1.0,0.0,0.0,0.0,1.0,0.0,0.0,0.0,1.0,-0.365853667259,4.45121955872,0.0609756112099,1.0,0.0,0.0,0.0,1.0,0.0,0.0,0.0,1.0,1.96324536133,-0.138863696289,10.1418382324,1.0,0.0,0.0,0.0,1.0,0.0,0.0,0.0,1.0
1489584521006777891,111,1489584521004465967,,-9.35015201569,0.727489471436,132.205505371,0.00335299992003,1.0,0.0,0.0,0.0,1.0,0.0,0.0,0.0,1.0,-0.243902444839,5.60975599289,-0.18292683363,1.0,0.0,0.0,0.0,1.0,0.0,0.0,0.0,1.0,1.77170922852,-0.225054956055,10.1226846191,1.0,0.0,0.0,0.0,1.0,0.0,0.0,0.0,1.0
1489584521027375307,112,1489584521025367445,,-9.25273609161,0.668556451797,132.343383789,0.00262899999507,1.0,0.0,0.0,0.0,1.0,0.0,0.0,0.0,1.0,-0.0609756112099,6.70731735229,0.12195122242,1.0,0.0,0.0,0.0,1.0,0.0,0.0,0.0,1.0,1.84832368164,-0.339976635742,10.1035310059,1.0,0.0,0.0,0.0,1.0,0.0,0.0,0.0,1.0
1489584521050600115,113,1489584521048570066,,-9.11187076569,0.601856410503,132.425125122,0.00271199992858,1.0,0.0,0.0,0.0,1.0,0.0,0.0,0.0,1.0,0.0609756112099,6.89024400711,-1.09756100178,1.0,0.0,0.0,0.0,1.0,0.0,0.0,0.0,1.0,1.69988317871,-0.292092584273,10.1609918457,1.0,0.0,0.0,0.0,1.0,0.0,0.0,0.0,1.0
1489584521073607580,114,1489584521070838366,,-8.96563148499,0.554392337799,132.491226196,0.00350399990566,1.0,0.0,0.0,0.0,1.0,0.0,0.0,0.0,1.0,0.304878056049,6.64634132385,-1.09756100178,1.0,0.0,0.0,0.0,1.0,0.0,0.0,0.0,1.0,1.67115275879,-0.220266552734,10.1226846191,1.0,0.0,0.0,0.0,1.0,0.0,0.0,0.0,1.0
1489584521096910409,115,1489584521091534949,,-8.82895469666,0.526104390621,132.543014526,0.00358800007962,1.0,0.0,0.0,0.0,1.0,0.0,0.0,0.0,1.0,0.243902444839,5.85365867615,-0.0609756112099,1.0,0.0,0.0,0.0,1.0,0.0,0.0,0.0,1.0,1.54665427246,-0.067037651051,9.99339772949,1.0,0.0,0.0,0.0,1.0,0.0,0.0,0.0,1.0
1489584521116053193,116,1489584521114349601,,-8.69986534119,0.478179782629,132.66267395,0.00258899992332,1.0,0.0,0.0,0.0,1.0,0.0,0.0,0.0,1.0,0.0,6.21951246262,0.792682945728,1.0,0.0,0.0,0.0,1.0,0.0,0.0,0.0,1.0,1.56101948242,-0.292092584273,10.0077629395,1.0,0.0,0.0,0.0,1.0,0.0,0.0,0.0,1.0
1489584521139508678,117,1489584521137988263,,-8.58118247986,0.419820219278,132.76852417,0.00292799994349,1.0,0.0,0.0,0.0,1.0,0.0,0.0,0.0,1.0,-0.304878056049,5.06097555161,-0.609756112099,1.0,0.0,0.0,0.0,1.0,0.0,0.0,0.0,1.0,1.58974990234,-0.344765039063,10.1035310059,1.0,0.0,0.0,0.0,1.0,0.0,0.0,0.0,1.0
1489584521167482593,118,1489584521160988072,,-8.46839046478,0.362423360348,132.829971313,0.00313499988988,1.0,0.0,0.0,0.0,1.0,0.0,0.0,0.0,1.0,0.0,5.36585378647,-0.792682945728,1.0,0.0,0.0,0.0,1.0,0.0,0.0,0.0,1.0,1.54186586914,-0.15322890625,10.0652237793,1.0,0.0,0.0,0.0,1.0,0.0,0.0,0.0,1.0
1489584521183133142,119,1489584521181602520,,-8.36770439148,0.320145398378,132.882492065,0.00341299991123,1.0,0.0,0.0,0.0,1.0,0.0,0.0,0.0,1.0,-0.0609756112099,5.18292713165,-0.548780500889,1.0,0.0,0.0,0.0,1.0,0.0,0.0,0.0,1.0,1.5801730957,-0.138863696289,10.1083194092,1.0,0.0,0.0,0.0,1.0,0.0,0.0,0.0,1.0
1489584521204427954,120,1489584521202977904,,-8.25272750854,0.292920768261,132.951477051,0.00354199996218,1.0,0.0,0.0,0.0,1.0,0.0,0.0,0.0,1.0,-0.243902444839,5.36585378647,-0.853658556938,1.0,0.0,0.0,0.0,1.0,0.0,0.0,0.0,1.0,1.38863696289,-0.076614453125,9.93593688965,1.0,0.0,0.0,0.0,1.0,0.0,0.0,0.0,1.0
1489584521224986151,121,1489584521223216571,,-8.15165138245,0.251767903566,133.036361694,0.00330300000496,1.0,0.0,0.0,0.0,1.0,0.0,0.0,0.0,1.0,-0.0609756112099,4.2682929039,-0.548780500889,1.0,0.0,0.0,0.0,1.0,0.0,0.0,0.0,1.0,1.35511813965,-0.292092584273,10.0508585693,1.0,0.0,0.0,0.0,1.0,0.0,0.0,0.0,1.0
1489584521245645495,122,1489584521244001018,,-8.07123088837,0.21041610837,133.102615356,0.00291300006211,1.0,0.0,0.0,0.0,1.0,0.0,0.0,0.0,1.0,-0.365853667259,2.98780488968,0.243902444839,1.0,0.0,0.0,0.0,1.0,0.0,0.0,0.0,1.0,1.22583125,-0.282515795898,10.0891657959,1.0,0.0,0.0,0.0,1.0,0.0,0.0,0.0,1.0
1489584521266243797,123,1489584521264568070,,-8.01893424988,0.157332569361,133.177978516,0.0028919999022,1.0,0.0,0.0,0.0,1.0,0.0,0.0,0.0,1.0,-0.670731723309,0.914634168148,0.243902444839,1.0,0.0,0.0,0.0,1.0,0.0,0.0,0.0,1.0,1.23540805664,-0.282515795898,10.060435376,1.0,0.0,0.0,0.0,1.0,0.0,0.0,0.0,1.0
1489584521289391157,124,1489584521286039912,,-8.00778102875,0.0986497700214,133.274383545,0.00341299991123,1.0,0.0,0.0,0.0,1.0,0.0,0.0,0.0,1.0,-1.09756100178,0.304878056049,0.487804889679,1.0,0.0,0.0,0.0,1.0,0.0,0.0,0.0,1.0,1.28808049316,-0.268150604204,10.1083194092,1.0,0.0,0.0,0.0,1.0,0.0,0.0,0.0,1.0
1489584521308525399,125,1489584521306879724,,-8.03055381775,0.0367412529886,133.357315063,0.00378599995747,1.0,0.0,0.0,0.0,1.0,0.0,0.0,0.0,1.0,-0.731707334518,-0.548780500889,0.609756112099,1.0,0.0,0.0,0.0,1.0,0.0,0.0,0.0,1.0,1.52750065918,-0.335188232422,9.93593688965,1.0,0.0,0.0,0.0,1.0,0.0,0.0,0.0,1.0
1489584521328247244,126,1489584521326714538,,-8.06756591797,-0.0230778679252,133.4271698,0.00296199996956,1.0,0.0,0.0,0.0,1.0,0.0,0.0,0.0,1.0,-0.609756112099,0.18292683363,0.670731723309,1.0,0.0,0.0,0.0,1.0,0.0,0.0,0.0,1.0,1.73340200195,-0.215478149414,10.1178962158,1.0,0.0,0.0,0.0,1.0,0.0,0.0,0.0,1.0
1489584521350637106,127,1489584521349096795,,-8.10367584229,-0.046839684248,133.541702271,0.00285100005567,1.0,0.0,0.0,0.0,1.0,0.0,0.0,0.0,1.0,0.548780500889,1.15853655338,-0.12195122242,1.0,0.0,0.0,0.0,1.0,0.0,0.0,0.0,1.0,2.01112939453,-0.124498486328,10.0125513428,1.0,0.0,0.0,0.0,1.0,0.0,0.0,0.0,1.0
1489584521372817593,128,1489584521371202335,,-8.10093212128,-0.0199811477214,133.674697876,0.00383799988776,1.0,0.0,0.0,0.0,1.0,0.0,0.0,0.0,1.0,0.18292683363,4.51219558716,0.0,1.0,0.0,0.0,0.0,1.0,0.0,0.0,0.0,1.0,2.06859023437,0.177170922852,10.2567599121,1.0,0.0,0.0,0.0,1.0,0.0,0.0,0.0,1.0
1489584521397968700,129,1489584521396171099,,-8.01212120056,-0.046033654362,133.810699463,0.00539600010961,1.0,0.0,0.0,0.0,1.0,0.0,0.0,0.0,1.0,-0.12195122242,6.70731735229,-0.0609756112099,1.0,0.0,0.0,0.0,1.0,0.0,0.0,0.0,1.0,1.77649763184,-0.3064578125,9.89284125977,1.0,0.0,0.0,0.0,1.0,0.0,0.0,0.0,1.0
1489584521421455123,130,1489584521419959917,,-7.88300418854,-0.112019315362,133.880432129,0.00372399995103,1.0,0.0,0.0,0.0,1.0,0.0,0.0,0.0,1.0,0.0,8.84146404266,0.548780500889,1.0,0.0,0.0,0.0,1.0,0.0,0.0,0.0,1.0,1.88184250488,-0.545877978516,10.2040874756,1.0,0.0,0.0,0.0,1.0,0.0,0.0,0.0,1.0
1489584521443563058,131,1489584521442044883,,-7.70798778534,-0.182143270969,133.919433594,0.00385099998675,1.0,0.0,0.0,0.0,1.0,0.0,0.0,0.0,1.0,-0.18292683363,10.4878053665,1.03658533096,1.0,0.0,0.0,0.0,1.0,0.0,0.0,0.0,1.0,1.85790048828,-0.507570751953,9.92157167969,1.0,0.0,0.0,0.0,1.0,0.0,0.0,0.0,1.0
1489584521465971878,132,1489584521464156151,,-7.52020740509,-0.230480760336,133.957061768,0.00314199994318,1.0,0.0,0.0,0.0,1.0,0.0,0.0,0.0,1.0,-0.18292683363,13.1707324982,-0.304878056049,1.0,0.0,0.0,0.0,1.0,0.0,0.0,0.0,1.0,1.83395847168,-0.0574608398438,10.3333743652,1.0,0.0,0.0,0.0,1.0,0.0,0.0,0.0,1.0
1489584521490851110,133,1489584521487476376,,-7.2601647377,-0.240604907274,133.936325073,0.00264400010929,1.0,0.0,0.0,0.0,1.0,0.0,0.0,0.0,1.0,-0.0609756112099,14.5121955872,-1.52439022064,1.0,0.0,0.0,0.0,1.0,0.0,0.0,0.0,1.0,1.57059628906,-0.177170922852,9.91199487305,1.0,0.0,0.0,0.0,1.0,0.0,0.0,0.0,1.0
1489584521509626759,134,1489584521507671554,,-6.9729847908,-0.248124167323,133.869171143,0.00298999994993,1.0,0.0,0.0,0.0,1.0,0.0,0.0,0.0,1.0,0.548780500889,16.6463413239,-0.609756112099,1.0,0.0,0.0,0.0,1.0,0.0,0.0,0.0,1.0,1.42694418945,-0.215478149414,10.1035310059,1.0,0.0,0.0,0.0,1.0,0.0,0.0,0.0,1.0
1489584521533805368,135,1489584521529450947,,-6.62630939484,-0.262442976236,133.887069702,0.00276100006886,1.0,0.0,0.0,0.0,1.0,0.0,0.0,0.0,1.0,0.243902444839,16.158536911,-0.243902444839,1.0,0.0,0.0,0.0,1.0,0.0,0.0,0.0,1.0,1.49398183594,-0.502782348633,10.1322614258,1.0,0.0,0.0,0.0,1.0,0.0,0.0,0.0,1.0
1489584521555091117,136,1489584521551074769,,-6.29732942581,-0.27846339345,133.9037323,0.00336700002663,1.0,0.0,0.0,0.0,1.0,0.0,0.0,0.0,1.0,0.670731723309,15.3048791885,-1.15853655338,1.0,0.0,0.0,0.0,1.0,0.0,0.0,0.0,1.0,1.42215578613,-0.248996972656,9.95987890625,1.0,0.0,0.0,0.0,1.0,0.0,0.0,0.0,1.0
1489584521575758012,137,1489584521573788744,,-5.96559619904,-0.282326519489,133.918670654,0.00330500002019,1.0,0.0,0.0,0.0,1.0,0.0,0.0,0.0,1.0,0.487804889679,15.4878053665,-1.58536589146,1.0,0.0,0.0,0.0,1.0,0.0,0.0,0.0,1.0,1.13006318359,-0.181959326172,10.1609918457,1.0,0.0,0.0,0.0,1.0,0.0,0.0,0.0,1.0
1489584521597467771,138,1489584521595940117,,-5.63764810562,-0.276184260845,133.890548706,0.0037720000837,1.0,0.0,0.0,0.0,1.0,0.0,0.0,0.0,1.0,0.18292683363,14.2682924271,-1.52439022064,1.0,0.0,0.0,0.0,1.0,0.0,0.0,0.0,1.0,0.684741674805,-0.186747729492,10.046070166,1.0,0.0,0.0,0.0,1.0,0.0,0.0,0.0,1.0
1489584521618489353,139,1489584521616264565,,-5.34155321121,-0.285365760326,133.882583618,0.00316999992356,1.0,0.0,0.0,0.0,1.0,0.0,0.0,0.0,1.0,-0.304878056049,10.7926826477,-1.52439022064,1.0,0.0,0.0,0.0,1.0,0.0,0.0,0.0,1.0,0.488417138672,-0.15801730957,10.1562034424,1.0,0.0,0.0,0.0,1.0,0.0,0.0,0.0,1.0
1489584521640430570,140,1489584521638440781,,-5.1096663475,-0.29409262538,133.838226318,0.00344299990684,1.0,0.0,0.0,0.0,1.0,0.0,0.0,0.0,1.0,-0.304878056049,5.18292713165,-2.43902444839,1.0,0.0,0.0,0.0,1.0,0.0,0.0,0.0,1.0,0.579396801758,-0.181959326172,9.96945571289,1.0,0.0,0.0,0.0,1.0,0.0,0.0,0.0,1.0
1489584521663582826,141,1489584521660774341,,-4.97577953339,-0.316953480244,133.803359985,0.00526899984106,1.0,0.0,0.0,0.0,1.0,0.0,0.0,0.0,1.0,-0.12195122242,2.25609779358,-0.975609779358,1.0,0.0,0.0,0.0,1.0,0.0,0.0,0.0,1.0,0.679953271484,-0.244208569336,10.1992990723,1.0,0.0,0.0,0.0,1.0,0.0,0.0,0.0,1.0
1489584521686033677,142,1489584521683468369,,-4.916015625,-0.367288291454,133.824249268,0.00302900001407,1.0,0.0,0.0,0.0,1.0,0.0,0.0,0.0,1.0,-0.304878056049,-0.548780500889,1.09756100178,1.0,0.0,0.0,0.0,1.0,0.0,0.0,0.0,1.0,0.641646044922,-0.277727392578,10.0700121826,1.0,0.0,0.0,0.0,1.0,0.0,0.0,0.0,1.0
1489584521707599842,143,1489584521705745783,,-4.9449300766,-0.403617411852,133.817382812,0.00320399994962,1.0,0.0,0.0,0.0,1.0,0.0,0.0,0.0,1.0,-0.18292683363,-2.01219511032,1.95121955872,1.0,0.0,0.0,0.0,1.0,0.0,0.0,0.0,1.0,0.76614453125,-0.253785375977,10.0843773926,1.0,0.0,0.0,0.0,1.0,0.0,0.0,0.0,1.0
1489584521727906634,144,1489584521726236949,,-5.02775335312,-0.418276667595,133.826187134,0.00283599994145,1.0,0.0,0.0,0.0,1.0,0.0,0.0,0.0,1.0,-0.426829278469,-4.39024400711,0.12195122242,1.0,0.0,0.0,0.0,1.0,0.0,0.0,0.0,1.0,0.842758984375,-0.181959326172,10.046070166,1.0,0.0,0.0,0.0,1.0,0.0,0.0,0.0,1.0
1489584521750116965,145,1489584521748568790,,-5.15214252472,-0.442251235247,133.794906616,0.00273799989372,1.0,0.0,0.0,0.0,1.0,0.0,0.0,0.0,1.0,-0.731707334518,-5.18292713165,-0.243902444839,1.0,0.0,0.0,0.0,1.0,0.0,0.0,0.0,1.0,1.02471831055,-0.210689746094,10.1562034424,1.0,0.0,0.0,0.0,1.0,0.0,0.0,0.0,1.0
1489584521773298753,146,1489584521771856567,,-5.29650592804,-0.468157440424,133.81942749,0.00378999998793,1.0,0.0,0.0,0.0,1.0,0.0,0.0,0.0,1.0,-0.304878056049,-5.73170757294,0.853658556938,1.0,0.0,0.0,0.0,1.0,0.0,0.0,0.0,1.0,1.16358193377,-0.15801730957,10.1226846191,1.0,0.0,0.0,0.0,1.0,0.0,0.0,0.0,1.0
1489584521802032719,147,1489584521797096008,,-5.46614551544,-0.492863804102,133.807006836,0.00338299991563,1.0,0.0,0.0,0.0,1.0,0.0,0.0,0.0,1.0,-0.487804889679,-5.48780488968,0.792682945728,1.0,0.0,0.0,0.0,1.0,0.0,0.0,0.0,1.0,1.30244570312,-0.201112939453,10.0795889893,1.0,0.0,0.0,0.0,1.0,0.0,0.0,0.0,1.0
1489584521818406757,148,1489584521816798270,,-5.61676502228,-0.530368924141,133.809570312,0.00315400003456,1.0,0.0,0.0,0.0,1.0,0.0,0.0,0.0,1.0,-0.426829278469,-4.93902444839,0.12195122242,1.0,0.0,0.0,0.0,1.0,0.0,0.0,0.0,1.0,1.36469494629,-0.330399829102,10.2328178955,1.0,0.0,0.0,0.0,1.0,0.0,0.0,0.0,1.0
1489584521841529065,149,1489584521839496099,,-5.76320123672,-0.573028326035,133.810470581,0.00606600008905,1.0,0.0,0.0,0.0,1.0,0.0,0.0,0.0,1.0,-0.670731723309,-3.23170733452,-0.0609756112099,1.0,0.0,0.0,0.0,1.0,0.0,0.0,0.0,1.0,1.54665427246,-0.191536132812,10.0939541992,1.0,0.0,0.0,0.0,1.0,0.0,0.0,0.0,1.0
1489584521864385593,150,1489584521862676012,,-5.87783575058,-0.594559490681,133.807159424,0.00306600006297,1.0,0.0,0.0,0.0,1.0,0.0,0.0,0.0,1.0,-0.548780500889,-1.40243899822,-0.18292683363,1.0,0.0,0.0,0.0,1.0,0.0,0.0,0.0,1.0,1.65199914551,-0.225054956055,10.1083194092,1.0,0.0,0.0,0.0,1.0,0.0,0.0,0.0,1.0
1489584521887761495,151,1489584521883790146,,-5.95248889923,-0.620856285095,133.817993164,0.00265199993737,1.0,0.0,0.0,0.0,1.0,0.0,0.0,0.0,1.0,-0.426829278469,0.487804889679,-0.0609756112099,1.0,0.0,0.0,0.0,1.0,0.0,0.0,0.0,1.0,1.5801730957,-0.316034619141,10.1609918457,1.0,0.0,0.0,0.0,1.0,0.0,0.0,0.0,1.0
1489584521907311361,152,1489584521905601155,,-5.97092056274,-0.652271091938,133.807907104,0.00278400001116,1.0,0.0,0.0,0.0,1.0,0.0,0.0,0.0,1.0,-0.426829278469,1.76829278469,-0.243902444839,1.0,0.0,0.0,0.0,1.0,0.0,0.0,0.0,1.0,1.41736738281,-0.339976635742,10.1370498291,1.0,0.0,0.0,0.0,1.0,0.0,0.0,0.0,1.0
1489584521936792930,153,1489584521934976006,,-5.9826965332,-0.694486558437,133.83001709,0.00349300005473,1.0,0.0,0.0,0.0,1.0,0.0,0.0,0.0,1.0,-0.731707334518,2.19512200356,-0.731707334518,1.0,0.0,0.0,0.0,1.0,0.0,0.0,0.0,1.0,1.66636435547,-0.31124621582,10.1370498291,1.0,0.0,0.0,0.0,1.0,0.0,0.0,0.0,1.0
1489584521953624102,154,1489584521951314627,,-5.94978141785,-0.707285225391,133.792892456,0.00311900000088,1.0,0.0,0.0,0.0,1.0,0.0,0.0,0.0,1.0,-0.304878056049,2.98780488968,0.0,1.0,0.0,0.0,0.0,1.0,0.0,0.0,0.0,1.0,1.35032973633,-0.0287304199219,10.1178962158,1.0,0.0,0.0,0.0,1.0,0.0,0.0,0.0,1.0
1489584521979401303,155,1489584521977845055,,-5.91369247437,-0.715723872185,133.833206177,0.00319200009108,1.0,0.0,0.0,0.0,1.0,0.0,0.0,0.0,1.0,-0.18292683363,3.7804877758,0.0,1.0,0.0,0.0,0.0,1.0,0.0,0.0,0.0,1.0,1.41736738281,-0.253785375977,10.0843773926,1.0,0.0,0.0,0.0,1.0,0.0,0.0,0.0,1.0
1489584522000494083,156,1489584521997751691,,-5.86175584793,-0.721484720707,133.866958618,0.00442499993369,1.0,0.0,0.0,0.0,1.0,0.0,0.0,0.0,1.0,0.243902444839,4.14634132385,-0.365853667259,1.0,0.0,0.0,0.0,1.0,0.0,0.0,0.0,1.0,1.46525141602,-0.220266552734,10.1466266357,1.0,0.0,0.0,0.0,1.0,0.0,0.0,0.0,1.0
1489584522021427489,157,1489584522019069940,,-5.79570674896,-0.749399363995,133.889221191,0.00639199977741,1.0,0.0,0.0,0.0,1.0,0.0,0.0,0.0,1.0,-0.0609756112099,4.32926845551,-0.975609779358,1.0,0.0,0.0,0.0,1.0,0.0,0.0,0.0,1.0,1.14921679688,-0.268150604204,10.060435376,1.0,0.0,0.0,0.0,1.0,0.0,0.0,0.0,1.0
1489584522042693550,158,1489584522039998919,,-5.74039268494,-0.782305061817,133.902389526,0.0029509998858,1.0,0.0,0.0,0.0,1.0,0.0,0.0,0.0,1.0,0.18292683363,3.65853667259,-0.548780500889,1.0,0.0,0.0,0.0,1.0,0.0,0.0,0.0,1.0,1.22104284668,-0.359130249023,10.0843773926,1.0,0.0,0.0,0.0,1.0,0.0,0.0,0.0,1.0
1489584522064617735,159,1489584522062734405,,-5.68468618393,-0.803025782108,133.876281738,0.00254100002348,1.0,0.0,0.0,0.0,1.0,0.0,0.0,0.0,1.0,-0.426829278469,2.80487799644,0.0,1.0,0.0,0.0,0.0,1.0,0.0,0.0,0.0,1.0,1.06302561017,-0.215478149414,10.0125513428,1.0,0.0,0.0,0.0,1.0,0.0,0.0,0.0,1.0
1489584522084717757,160,1489584522083187603,,-5.66288280487,-0.809741377831,133.881256104,0.00250800000504,1.0,0.0,0.0,0.0,1.0,0.0,0.0,0.0,1.0,-0.304878056049,1.8292683363,-0.243902444839,1.0,0.0,0.0,0.0,1.0,0.0,0.0,0.0,1.0,1.19710090314,-0.220266552734,10.060435376,1.0,0.0,0.0,0.0,1.0,0.0,0.0,0.0,1.0
1489584522107251524,161,1489584522105245330,,-5.65375423431,-0.823647677898,133.893630981,0.00253299996257,1.0,0.0,0.0,0.0,1.0,0.0,0.0,0.0,1.0,-0.18292683363,2.25609779358,0.609756112099,1.0,0.0,0.0,0.0,1.0,0.0,0.0,0.0,1.0,1.2976572998,-0.330399829102,10.1131078125,1.0,0.0,0.0,0.0,1.0,0.0,0.0,0.0,1.0
1489584522129320189,162,1489584522127373525,,-5.65026044846,-0.829444766045,133.862762451,0.00244700000621,1.0,0.0,0.0,0.0,1.0,0.0,0.0,0.0,1.0,0.0609756112099,2.19512200356,-0.18292683363,1.0,0.0,0.0,0.0,1.0,0.0,0.0,0.0,1.0,1.37906015625,-0.162805712891,10.2088758789,1.0,0.0,0.0,0.0,1.0,0.0,0.0,0.0,1.0
1489584522151865206,163,1489584522149799376,,-5.64693689346,-0.84454280138,133.855163574,0.00245200004429,1.0,0.0,0.0,0.0,1.0,0.0,0.0,0.0,1.0,0.0609756112099,2.56097555161,-0.609756112099,1.0,0.0,0.0,0.0,1.0,0.0,0.0,0.0,1.0,1.56101948242,-0.421379492187,10.1897222656,1.0,0.0,0.0,0.0,1.0,0.0,0.0,0.0,1.0
1489584522174475484,164,1489584522172100853,,-5.62470769882,-0.858430147171,133.840301514,0.00243999995291,1.0,0.0,0.0,0.0,1.0,0.0,0.0,0.0,1.0,-0.18292683363,2.74390244484,-0.304878056049,1.0,0.0,0.0,0.0,1.0,0.0,0.0,0.0,1.0,1.17315874041,-0.15801730957,10.1466266357,1.0,0.0,0.0,0.0,1.0,0.0,0.0,0.0,1.0
1489584522197669511,165,1489584522195756754,,-5.602891922,-0.866424381733,133.817932129,0.00266700005159,1.0,0.0,0.0,0.0,1.0,0.0,0.0,0.0,1.0,-0.0609756112099,2.01219511032,-0.18292683363,1.0,0.0,0.0,0.0,1.0,0.0,0.0,0.0,1.0,1.18273554705,-0.253785375977,10.0364933594,1.0,0.0,0.0,0.0,1.0,0.0,0.0,0.0,1.0
1489584522220721247,166,1489584522218675677,,-5.58809566498,-0.875801563263,133.796188354,0.00348499999382,1.0,0.0,0.0,0.0,1.0,0.0,0.0,0.0,1.0,0.365853667259,2.31707310677,-0.243902444839,1.0,0.0,0.0,0.0,1.0,0.0,0.0,0.0,1.0,1.33117612305,-0.3064578125,10.0939541992,1.0,0.0,0.0,0.0,1.0,0.0,0.0,0.0,1.0
1489584522242786161,167,1489584522240802154,,-5.57838439941,-0.888385474682,133.797515869,0.00255899992771,1.0,0.0,0.0,0.0,1.0,0.0,0.0,0.0,1.0,-0.12195122242,1.95121955872,-0.548780500889,1.0,0.0,0.0,0.0,1.0,0.0,0.0,0.0,1.0,1.32638771973,-0.162805712891,10.0029745361,1.0,0.0,0.0,0.0,1.0,0.0,0.0,0.0,1.0
1489584522264987534,168,1489584522263328995,,-5.56212854385,-0.913621127605,133.804290771,0.00248200003989,1.0,0.0,0.0,0.0,1.0,0.0,0.0,0.0,1.0,-0.670731723309,1.8292683363,0.0,1.0,0.0,0.0,0.0,1.0,0.0,0.0,0.0,1.0,1.0534486574,-0.344765039063,10.165780249,1.0,0.0,0.0,0.0,1.0,0.0,0.0,0.0,1.0
1489584522287933905,169,1489584522285924898,,-5.55824422836,-0.928264677525,133.828170776,0.00244700000621,1.0,0.0,0.0,0.0,1.0,0.0,0.0,0.0,1.0,-0.18292683363,1.40243899822,0.548780500889,1.0,0.0,0.0,0.0,1.0,0.0,0.0,0.0,1.0,1.14921679688,-0.220266552734,9.92636008301,1.0,0.0,0.0,0.0,1.0,0.0,0.0,0.0,1.0
1489584522309768611,170,1489584522307296428,,-5.5724864006,-0.932629406452,133.81451416,0.00259099993855,1.0,0.0,0.0,0.0,1.0,0.0,0.0,0.0,1.0,-0.12195122242,0.914634168148,0.0609756112099,1.0,0.0,0.0,0.0,1.0,0.0,0.0,0.0,1.0,1.25935007324,-0.220266552734,9.95987890625,1.0,0.0,0.0,0.0,1.0,0.0,0.0,0.0,1.0
1489584522331519203,171,1489584522328923790,,-5.59390592575,-0.938249945641,133.786697388,0.00246100011282,1.0,0.0,0.0,0.0,1.0,0.0,0.0,0.0,1.0,-0.304878056049,1.15853655338,-0.243902444839,1.0,0.0,0.0,0.0,1.0,0.0,0.0,0.0,1.0,1.51792385254,-0.402225878906,10.2184526855,1.0,0.0,0.0,0.0,1.0,0.0,0.0,0.0,1.0
1489584522353888284,172,1489584522351126882,,-5.60409259796,-0.959027707577,133.781188965,0.00245100003667,1.0,0.0,0.0,0.0,1.0,0.0,0.0,0.0,1.0,-0.365853667259,1.46341466904,0.0,1.0,0.0,0.0,0.0,1.0,0.0,0.0,0.0,1.0,1.43173259277,-0.248996972656,10.1370498291,1.0,0.0,0.0,0.0,1.0,0.0,0.0,0.0,1.0
1489584522376864238,173,1489584522373173098,,-5.61149168015,-0.97929507494,133.737716675,0.00244700000621,1.0,0.0,0.0,0.0,1.0,0.0,0.0,0.0,1.0,-0.304878056049,1.15853655338,-0.365853667259,1.0,0.0,0.0,0.0,1.0,0.0,0.0,0.0,1.0,1.28808049316,-0.363918652344,10.1131078125,1.0,0.0,0.0,0.0,1.0,0.0,0.0,0.0,1.0
1489584522397258530,174,1489584522395094054,,-5.62423944473,-0.97635614872,133.749343872,0.00325600011274,1.0,0.0,0.0,0.0,1.0,0.0,0.0,0.0,1.0,0.0,1.34146344662,0.18292683363,1.0,0.0,0.0,0.0,1.0,0.0,0.0,0.0,1.0,1.16837033709,-0.110133276367,10.0556469727,1.0,0.0,0.0,0.0,1.0,0.0,0.0,0.0,1.0
1489584522417089698,175,1489584522414973763,,-5.63641166687,-0.981359839439,133.748519897,0.00268699997105,1.0,0.0,0.0,0.0,1.0,0.0,0.0,0.0,1.0,0.0,1.40243899822,0.0,1.0,0.0,0.0,0.0,1.0,0.0,0.0,0.0,1.0,1.2976572998,-0.201112939453,9.95509050293,1.0,0.0,0.0,0.0,1.0,0.0,0.0,0.0,1.0
1489584522442530440,176,1489584522440457787,,-5.64835119247,-1.00570869446,133.762878418,0.00581899983808,1.0,0.0,0.0,0.0,1.0,0.0,0.0,0.0,1.0,-0.0609756112099,1.64634156227,-0.0609756112099,1.0,0.0,0.0,0.0,1.0,0.0,0.0,0.0,1.0,1.37427175293,-0.335188232422,10.314220752,1.0,0.0,0.0,0.0,1.0,0.0,0.0,0.0,1.0
1489584522463302179,177,1489584522461426297,,-5.65120840073,-1.0371311903,133.762023926,0.00409899977967,1.0,0.0,0.0,0.0,1.0,0.0,0.0,0.0,1.0,-0.18292683363,2.13414645195,0.18292683363,1.0,0.0,0.0,0.0,1.0,0.0,0.0,0.0,1.0,1.41257897949,-0.31124621582,10.1131078125,1.0,0.0,0.0,0.0,1.0,0.0,0.0,0.0,1.0
1489584522489824847,178,1489584522483308972,,-5.64879417419,-1.03999781609,133.764083862,0.00380799989216,1.0,0.0,0.0,0.0,1.0,0.0,0.0,0.0,1.0,-0.18292683363,3.35365867615,0.609756112099,1.0,0.0,0.0,0.0,1.0,0.0,0.0,0.0,1.0,1.54186586914,-0.162805712891,10.2423947021,1.0,0.0,0.0,0.0,1.0,0.0,0.0,0.0,1.0
1489584522508604923,179,1489584522506297374,,-5.62922000885,-1.0367732048,133.778808594,0.00311599997804,1.0,0.0,0.0,0.0,1.0,0.0,0.0,0.0,1.0,-0.365853667259,3.53658556938,-0.304878056049,1.0,0.0,0.0,0.0,1.0,0.0,0.0,0.0,1.0,1.33596452637,-0.110133276367,10.1226846191,1.0,0.0,0.0,0.0,1.0,0.0,0.0,0.0,1.0
1489584522532297959,180,1489584522529058902,,-5.5880188942,-1.04826629162,133.780334473,0.00257400004193,1.0,0.0,0.0,0.0,1.0,0.0,0.0,0.0,1.0,-0.12195122242,4.20731735229,-0.914634168148,1.0,0.0,0.0,0.0,1.0,0.0,0.0,0.0,1.0,1.47482822266,-0.46447512207,10.0939541992,1.0,0.0,0.0,0.0,1.0,0.0,0.0,0.0,1.0
1489584522554796727,181,1489584522551742826,,-5.51792049408,-1.07550656796,133.806869507,0.00267300009727,1.0,0.0,0.0,0.0,1.0,0.0,0.0,0.0,1.0,0.243902444839,3.96341490746,-0.304878056049,1.0,0.0,0.0,0.0,1.0,0.0,0.0,0.0,1.0,1.11090957031,-0.316034619141,10.0317049561,1.0,0.0,0.0,0.0,1.0,0.0,0.0,0.0,1.0
1489584522578715649,182,1489584522575655966,,-5.47013521194,-1.10035169125,133.790618896,0.00294100004248,1.0,0.0,0.0,0.0,1.0,0.0,0.0,0.0,1.0,0.365853667259,2.68292689323,-0.487804889679,1.0,0.0,0.0,0.0,1.0,0.0,0.0,0.0,1.0,1.19710090314,-0.430956298828,9.99818613281,1.0,0.0,0.0,0.0,1.0,0.0,0.0,0.0,1.0
1489584522600231449,183,1489584522598021245,,-5.44787740707,-1.11587142944,133.80506897,0.00376600003801,1.0,0.0,0.0,0.0,1.0,0.0,0.0,0.0,1.0,0.12195122242,1.76829278469,-0.12195122242,1.0,0.0,0.0,0.0,1.0,0.0,0.0,0.0,1.0,1.2497732666,-0.225054956055,10.2567599121,1.0,0.0,0.0,0.0,1.0,0.0,0.0,0.0,1.0
1489584522622442145,184,1489584522620386783,,-5.44679737091,-1.10674762726,133.842910767,0.00550199998543,1.0,0.0,0.0,0.0,1.0,0.0,0.0,0.0,1.0,-0.12195122242,1.52439022064,-0.243902444839,1.0,0.0,0.0,0.0,1.0,0.0,0.0,0.0,1.0,1.26892687988,-0.0814028564453,10.2376062988,1.0,0.0,0.0,0.0,1.0,0.0,0.0,0.0,1.0
1489584522646268671,185,1489584522643889664,,-5.44702720642,-1.1020886898,133.82170105,0.00327099999413,1.0,0.0,0.0,0.0,1.0,0.0,0.0,0.0,1.0,-0.487804889679,1.2804877758,-0.0609756112099,1.0,0.0,0.0,0.0,1.0,0.0,0.0,0.0,1.0,1.20188930646,-0.268150604204,10.0939541992,1.0,0.0,0.0,0.0,1.0,0.0,0.0,0.0,1.0
1489584522667454784,186,1489584522665002497,,-5.45765447617,-1.10944914818,133.853759766,0.0025420000311,1.0,0.0,0.0,0.0,1.0,0.0,0.0,0.0,1.0,-0.609756112099,0.609756112099,0.0,1.0,0.0,0.0,0.0,1.0,0.0,0.0,0.0,1.0,1.16837033709,-0.244208569336,10.1705686523,1.0,0.0,0.0,0.0,1.0,0.0,0.0,0.0,1.0
1489584522692410163,187,1489584522688929335,,-5.47556114197,-1.12515604496,133.887954712,0.00274399993941,1.0,0.0,0.0,0.0,1.0,0.0,0.0,0.0,1.0,-0.426829278469,0.548780500889,0.304878056049,1.0,0.0,0.0,0.0,1.0,0.0,0.0,0.0,1.0,1.20188930646,-0.201112939453,9.99818613281,1.0,0.0,0.0,0.0,1.0,0.0,0.0,0.0,1.0
1489584522713369141,188,1489584522710070553,,-5.51821184158,-1.13354170322,133.926132202,0.003202999942,1.0,0.0,0.0,0.0,1.0,0.0,0.0,0.0,1.0,-0.243902444839,-0.12195122242,-0.18292683363,1.0,0.0,0.0,0.0,1.0,0.0,0.0,0.0,1.0,1.56101948242,-0.411802685547,10.2567599121,1.0,0.0,0.0,0.0,1.0,0.0,0.0,0.0,1.0
1489584522734529161,189,1489584522732031821,,-5.55492782593,-1.14286005497,133.954284668,0.00319699989632,1.0,0.0,0.0,0.0,1.0,0.0,0.0,0.0,1.0,-0.243902444839,0.975609779358,0.12195122242,1.0,0.0,0.0,0.0,1.0,0.0,0.0,0.0,1.0,1.38863696289,-0.15801730957,10.2328178955,1.0,0.0,0.0,0.0,1.0,0.0,0.0,0.0,1.0
1489584522758097771,190,1489584522755855587,,-5.58681344986,-1.1616768837,133.996170044,0.00291500007734,1.0,0.0,0.0,0.0,1.0,0.0,0.0,0.0,1.0,-0.12195122242,0.731707334518,0.12195122242,1.0,0.0,0.0,0.0,1.0,0.0,0.0,0.0,1.0,1.31202250977,-0.31124621582,10.0843773926,1.0,0.0,0.0,0.0,1.0,0.0,0.0,0.0,1.0
1489584522779864248,191,1489584522777655710,,-5.6234793663,-1.17689037323,134.019989014,0.0032830000855,1.0,0.0,0.0,0.0,1.0,0.0,0.0,0.0,1.0,-0.0609756112099,0.792682945728,-0.487804889679,1.0,0.0,0.0,0.0,1.0,0.0,0.0,0.0,1.0,1.4604630127,-0.239420166016,10.2088758789,1.0,0.0,0.0,0.0,1.0,0.0,0.0,0.0,1.0
1489584522802713745,192,1489584522800397394,,-5.6487569809,-1.1771979332,134.059005737,0.00414999993518,1.0,0.0,0.0,0.0,1.0,0.0,0.0,0.0,1.0,0.12195122242,1.2804877758,-0.243902444839,1.0,0.0,0.0,0.0,1.0,0.0,0.0,0.0,1.0,1.48919343262,-0.15322890625,10.1131078125,1.0,0.0,0.0,0.0,1.0,0.0,0.0,0.0,1.0
1489584522824371941,193,1489584522821964913,,-5.65572404861,-1.18381035328,134.113021851,0.00335399992764,1.0,0.0,0.0,0.0,1.0,0.0,0.0,0.0,1.0,0.243902444839,1.70731711388,0.0,1.0,0.0,0.0,0.0,1.0,0.0,0.0,0.0,1.0,1.31681091309,-0.239420166016,9.94072529297,1.0,0.0,0.0,0.0,1.0,0.0,0.0,0.0,1.0
1489584522846885344,194,1489584522844596702,,-5.66091251373,-1.19161486626,134.1121521,0.00304999994114,1.0,0.0,0.0,0.0,1.0,0.0,0.0,0.0,1.0,-0.548780500889,1.76829278469,-0.243902444839,1.0,0.0,0.0,0.0,1.0,0.0,0.0,0.0,1.0,1.32159931641,-0.239420166016,10.0795889893,1.0,0.0,0.0,0.0,1.0,0.0,0.0,0.0,1.0
1489584522867464636,195,1489584522865245056,,-5.66044187546,-1.19997358322,134.154296875,0.00319200009108,1.0,0.0,0.0,0.0,1.0,0.0,0.0,0.0,1.0,-0.426829278469,2.13414645195,0.18292683363,1.0,0.0,0.0,0.0,1.0,0.0,0.0,0.0,1.0,1.35032973633,-0.258573779297,10.1370498291,1.0,0.0,0.0,0.0,1.0,0.0,0.0,0.0,1.0
1489584522890297934,196,1489584522886779502,,-5.66414690018,-1.21246862411,134.213027954,0.00306400004774,1.0,0.0,0.0,0.0,1.0,0.0,0.0,0.0,1.0,-0.792682945728,1.8292683363,0.0609756112099,1.0,0.0,0.0,0.0,1.0,0.0,0.0,0.0,1.0,1.2976572998,-0.339976635742,9.98382092285,1.0,0.0,0.0,0.0,1.0,0.0,0.0,0.0,1.0
1489584522912204307,197,1489584522908513896,,-5.68119096756,-1.22610890865,134.260360718,0.00288000004366,1.0,0.0,0.0,0.0,1.0,0.0,0.0,0.0,1.0,-0.487804889679,1.34146344662,-0.792682945728,1.0,0.0,0.0,0.0,1.0,0.0,0.0,0.0,1.0,1.35032973633,-0.229843359375,10.2184526855,1.0,0.0,0.0,0.0,1.0,0.0,0.0,0.0,1.0
1489584522932846932,198,1489584522931051987,,-5.68277359009,-1.23184120655,134.2706604,0.00391300022602,1.0,0.0,0.0,0.0,1.0,0.0,0.0,0.0,1.0,-0.18292683363,1.34146344662,0.0609756112099,1.0,0.0,0.0,0.0,1.0,0.0,0.0,0.0,1.0,1.41736738281,-0.263362164351,9.98860932617,1.0,0.0,0.0,0.0,1.0,0.0,0.0,0.0,1.0
1489584522957319134,199,1489584522954645440,,-5.69709634781,-1.23692500591,134.323883057,0.00280399993062,1.0,0.0,0.0,0.0,1.0,0.0,0.0,0.0,1.0,-0.12195122242,1.2195122242,0.0,1.0,0.0,0.0,0.0,1.0,0.0,0.0,0.0,1.0,1.26413847656,-0.258573779297,10.1322614258,1.0,0.0,0.0,0.0,1.0,0.0,0.0,0.0,1.0
1489584522978395716,200,1489584522976473219,,-5.71790647507,-1.24503076077,134.396728516,0.00315200001933,1.0,0.0,0.0,0.0,1.0,0.0,0.0,0.0,1.0,0.12195122242,0.609756112099,-0.304878056049,1.0,0.0,0.0,0.0,1.0,0.0,0.0,0.0,1.0,1.25456166992,-0.201112939453,9.90720646973,1.0,0.0,0.0,0.0,1.0,0.0,0.0,0.0,1.0
1489584522999519226,201,1489584522997429750,,-5.75286579132,-1.25317800045,134.445297241,0.00518999993801,1.0,0.0,0.0,0.0,1.0,0.0,0.0,0.0,1.0,-0.0609756112099,0.365853667259,-0.609756112099,1.0,0.0,0.0,0.0,1.0,0.0,0.0,0.0,1.0,1.4604630127,-0.239420166016,10.1274730225,1.0,0.0,0.0,0.0,1.0,0.0,0.0,0.0,1.0
1489584523021397786,202,1489584523019202425,,-5.78579854965,-1.25723278522,134.493621826,0.00516099995002,1.0,0.0,0.0,0.0,1.0,0.0,0.0,0.0,1.0,-0.12195122242,0.609756112099,-0.18292683363,1.0,0.0,0.0,0.0,1.0,0.0,0.0,0.0,1.0,1.34075292969,-0.210689746094,10.0556469727,1.0,0.0,0.0,0.0,1.0,0.0,0.0,0.0,1.0
1489584523043601034,203,1489584523041168798,,-5.82331418991,-1.2584489584,134.547241211,0.00412499997765,1.0,0.0,0.0,0.0,1.0,0.0,0.0,0.0,1.0,-0.18292683363,0.304878056049,-0.0609756112099,1.0,0.0,0.0,0.0,1.0,0.0,0.0,0.0,1.0,1.4604630127,-0.114921679688,10.1992990723,1.0,0.0,0.0,0.0,1.0,0.0,0.0,0.0,1.0
1489584523064915532,204,1489584523062632723,,-5.86235952377,-1.26762783527,134.625823975,0.0029509998858,1.0,0.0,0.0,0.0,1.0,0.0,0.0,0.0,1.0,-0.243902444839,0.609756112099,0.18292683363,1.0,0.0,0.0,0.0,1.0,0.0,0.0,0.0,1.0,1.37427175293,-0.191536132812,9.98382092285,1.0,0.0,0.0,0.0,1.0,0.0,0.0,0.0,1.0
1489584523089721172,205,1489584523083226129,,-5.89826107025,-1.28962361813,134.691680908,0.00347499991767,1.0,0.0,0.0,0.0,1.0,0.0,0.0,0.0,1.0,-0.12195122242,1.03658533096,0.243902444839,1.0,0.0,0.0,0.0,1.0,0.0,0.0,0.0,1.0,1.42215578613,-0.330399829102,10.0077629395,1.0,0.0,0.0,0.0,1.0,0.0,0.0,0.0,1.0
1489584523108738174,206,1489584523106433594,,-5.93475675583,-1.29758214951,134.750106812,0.00313699990511,1.0,0.0,0.0,0.0,1.0,0.0,0.0,0.0,1.0,-0.426829278469,1.09756100178,-0.18292683363,1.0,0.0,0.0,0.0,1.0,0.0,0.0,0.0,1.0,1.50355864258,-0.248996972656,10.0269165527,1.0,0.0,0.0,0.0,1.0,0.0,0.0,0.0,1.0
1489584523130302672,207,1489584523127984342,,-5.96095180511,-1.29825234413,134.792373657,0.00273000006564,1.0,0.0,0.0,0.0,1.0,0.0,0.0,0.0,1.0,-0.304878056049,1.46341466904,-0.304878056049,1.0,0.0,0.0,0.0,1.0,0.0,0.0,0.0,1.0,1.48919343262,-0.148440512063,10.2711251221,1.0,0.0,0.0,0.0,1.0,0.0,0.0,0.0,1.0
1489584523156451122,208,1489584523151958160,,-5.96334409714,-1.30043780804,134.85269165,0.00350100011565,1.0,0.0,0.0,0.0,1.0,0.0,0.0,0.0,1.0,-0.18292683363,2.43902444839,0.18292683363,1.0,0.0,0.0,0.0,1.0,0.0,0.0,0.0,1.0,1.47482822266,-0.143652099609,10.1609918457,1.0,0.0,0.0,0.0,1.0,0.0,0.0,0.0,1.0
1489584523176423956,209,1489584523172268181,,-5.96308517456,-1.3090749979,134.90272522,0.00290800002404,1.0,0.0,0.0,0.0,1.0,0.0,0.0,0.0,1.0,0.18292683363,3.04878044128,-0.18292683363,1.0,0.0,0.0,0.0,1.0,0.0,0.0,0.0,1.0,1.40779057617,-0.316034619141,10.046070166,1.0,0.0,0.0,0.0,1.0,0.0,0.0,0.0,1.0
1489584523199010744,210,1489584523194718928,,-5.95077562332,-1.31720542908,134.897644043,0.00373500003479,1.0,0.0,0.0,0.0,1.0,0.0,0.0,0.0,1.0,-0.12195122242,3.47560977936,-0.0609756112099,1.0,0.0,0.0,0.0,1.0,0.0,0.0,0.0,1.0,1.45088620605,-0.497993945312,10.1466266357,1.0,0.0,0.0,0.0,1.0,0.0,0.0,0.0,1.0
1489584523217672695,211,1489584523214653585,,-5.9198846817,-1.31959736347,134.925491333,0.00302399997599,1.0,0.0,0.0,0.0,1.0,0.0,0.0,0.0,1.0,0.0,3.71951246262,-0.548780500889,1.0,0.0,0.0,0.0,1.0,0.0,0.0,0.0,1.0,1.40779057617,-0.339976635742,10.1274730225,1.0,0.0,0.0,0.0,1.0,0.0,0.0,0.0,1.0
1489584523239321100,212,1489584523237927977,,-5.87559223175,-1.31646490097,134.950836182,0.00322200008668,1.0,0.0,0.0,0.0,1.0,0.0,0.0,0.0,1.0,0.12195122242,3.59756112099,-0.609756112099,1.0,0.0,0.0,0.0,1.0,0.0,0.0,0.0,1.0,1.35990654297,-0.292092584273,10.0795889893,1.0,0.0,0.0,0.0,1.0,0.0,0.0,0.0,1.0
1489584523264098406,213,1489584523261477576,,-5.82482624054,-1.3126064539,134.929580688,0.00362300011329,1.0,0.0,0.0,0.0,1.0,0.0,0.0,0.0,1.0,0.12195122242,3.84146332741,-0.18292683363,1.0,0.0,0.0,0.0,1.0,0.0,0.0,0.0,1.0,1.34554133301,-0.244208569336,10.0939541992,1.0,0.0,0.0,0.0,1.0,0.0,0.0,0.0,1.0
1489584523290178835,214,1489584523282242961,,-5.7869310379,-1.31541883945,134.956008911,0.00329099991359,1.0,0.0,0.0,0.0,1.0,0.0,0.0,0.0,1.0,-0.12195122242,3.41463422775,-0.548780500889,1.0,0.0,0.0,0.0,1.0,0.0,0.0,0.0,1.0,1.39342536621,-0.277727392578,10.1514150391,1.0,0.0,0.0,0.0,1.0,0.0,0.0,0.0,1.0
1489584523305332405,215,1489584523302809961,,-5.76349830627,-1.32070469856,134.982849121,0.00313799991272,1.0,0.0,0.0,0.0,1.0,0.0,0.0,0.0,1.0,-0.365853667259,3.04878044128,0.0609756112099,1.0,0.0,0.0,0.0,1.0,0.0,0.0,0.0,1.0,1.33117612305,-0.229843359375,10.0412817627,1.0,0.0,0.0,0.0,1.0,0.0,0.0,0.0,1.0
1489584523328073152,216,1489584523325416802,,-5.74134349823,-1.32002580166,135.003845215,0.00258300011046,1.0,0.0,0.0,0.0,1.0,0.0,0.0,0.0,1.0,-0.243902444839,2.62195134163,0.12195122242,1.0,0.0,0.0,0.0,1.0,0.0,0.0,0.0,1.0,1.24019645996,-0.220266552734,10.1418382324,1.0,0.0,0.0,0.0,1.0,0.0,0.0,0.0,1.0
1489584523350343899,217,1489584523347906611,,-5.73379135132,-1.31998503208,135.030975342,0.00250399997458,1.0,0.0,0.0,0.0,1.0,0.0,0.0,0.0,1.0,-0.304878056049,1.95121955872,-0.18292683363,1.0,0.0,0.0,0.0,1.0,0.0,0.0,0.0,1.0,1.25935007324,-0.138863696289,10.2136642822,1.0,0.0,0.0,0.0,1.0,0.0,0.0,0.0,1.0
1489584523376468807,218,1489584523370307410,,-5.73570775986,-1.33055317402,135.038513184,0.00255899992771,1.0,0.0,0.0,0.0,1.0,0.0,0.0,0.0,1.0,-0.0609756112099,1.70731711388,-0.12195122242,1.0,0.0,0.0,0.0,1.0,0.0,0.0,0.0,1.0,1.5562310791,-0.363918652344,10.1131078125,1.0,0.0,0.0,0.0,1.0,0.0,0.0,0.0,1.0
1489584523395967319,219,1489584523392013315,,-5.7480931282,-1.33773005009,135.05569458,0.00324800005183,1.0,0.0,0.0,0.0,1.0,0.0,0.0,0.0,1.0,-0.0609756112099,1.8292683363,0.0,1.0,0.0,0.0,0.0,1.0,0.0,0.0,0.0,1.0,1.43173259277,-0.0287304199219,10.1131078125,1.0,0.0,0.0,0.0,1.0,0.0,0.0,0.0,1.0
1489584523413381459,220,1489584523411757764,,-5.75574874878,-1.33852088451,135.085113525,0.00276799988933,1.0,0.0,0.0,0.0,1.0,0.0,0.0,0.0,1.0,-0.18292683363,2.01219511032,-0.243902444839,1.0,0.0,0.0,0.0,1.0,0.0,0.0,0.0,1.0,1.31202250977,-0.067037651051,10.1609918457,1.0,0.0,0.0,0.0,1.0,0.0,0.0,0.0,1.0
1489584523436874652,221,1489584523434319865,,-5.7576789856,-1.34080946445,135.089447021,0.002623999957,1.0,0.0,0.0,0.0,1.0,0.0,0.0,0.0,1.0,-0.304878056049,2.25609779358,-0.548780500889,1.0,0.0,0.0,0.0,1.0,0.0,0.0,0.0,1.0,1.38384855957,-0.325611425781,10.0029745361,1.0,0.0,0.0,0.0,1.0,0.0,0.0,0.0,1.0
1489584523459627378,222,1489584523457851652,,-5.75393533707,-1.3448113203,135.071670532,0.00275500002317,1.0,0.0,0.0,0.0,1.0,0.0,0.0,0.0,1.0,-0.12195122242,1.8292683363,-0.304878056049,1.0,0.0,0.0,0.0,1.0,0.0,0.0,0.0,1.0,1.38863696289,-0.220266552734,10.1753570557,1.0,0.0,0.0,0.0,1.0,0.0,0.0,0.0,1.0
1489584523480995575,223,1489584523479400160,,-5.75915622711,-1.34337162971,135.095855713,0.00323599996045,1.0,0.0,0.0,0.0,1.0,0.0,0.0,0.0,1.0,0.18292683363,1.64634156227,-0.12195122242,1.0,0.0,0.0,0.0,1.0,0.0,0.0,0.0,1.0,1.4604630127,-0.301669427446,10.0556469727,1.0,0.0,0.0,0.0,1.0,0.0,0.0,0.0,1.0
1489584523502590177,224,1489584523500952263,,-5.76692008972,-1.34767651558,135.135879517,0.00373600004241,1.0,0.0,0.0,0.0,1.0,0.0,0.0,0.0,1.0,-0.0609756112099,2.62195134163,0.0,1.0,0.0,0.0,0.0,1.0,0.0,0.0,0.0,1.0,1.47482822266,-0.15801730957,10.1035310059,1.0,0.0,0.0,0.0,1.0,0.0,0.0,0.0,1.0
1489584523523244937,225,1489584523521584471,,-5.76143741608,-1.34632241726,135.128982544,0.00376300001517,1.0,0.0,0.0,0.0,1.0,0.0,0.0,0.0,1.0,0.12195122242,3.35365867615,-0.243902444839,1.0,0.0,0.0,0.0,1.0,0.0,0.0,0.0,1.0,1.59932670898,-0.239420166016,10.0029745361,1.0,0.0,0.0,0.0,1.0,0.0,0.0,0.0,1.0
1489584523546489433,226,1489584523544276468,,-5.73803567886,-1.3552274704,135.100448608,0.00284800003283,1.0,0.0,0.0,0.0,1.0,0.0,0.0,0.0,1.0,-0.243902444839,3.04878044128,-0.426829278469,1.0,0.0,0.0,0.0,1.0,0.0,0.0,0.0,1.0,1.30723410645,-0.325611425781,10.0412817627,1.0,0.0,0.0,0.0,1.0,0.0,0.0,0.0,1.0
1489584523573731735,227,1489584523572050748,,-5.71195363998,-1.36201834679,135.093505859,0.00250599998981,1.0,0.0,0.0,0.0,1.0,0.0,0.0,0.0,1.0,0.0609756112099,3.23170733452,-0.12195122242,1.0,0.0,0.0,0.0,1.0,0.0,0.0,0.0,1.0,1.23061965332,-0.301669427446,10.0412817627,1.0,0.0,0.0,0.0,1.0,0.0,0.0,0.0,1.0
1489584523592698894,228,1489584523590747230,,-5.69628190994,-1.35450124741,135.083267212,0.00294300005771,1.0,0.0,0.0,0.0,1.0,0.0,0.0,0.0,1.0,-0.18292683363,2.80487799644,-0.487804889679,1.0,0.0,0.0,0.0,1.0,0.0,0.0,0.0,1.0,1.52750065918,-0.387860668945,10.1705686523,1.0,0.0,0.0,0.0,1.0,0.0,0.0,0.0,1.0
1489584523610029857,229,1489584523608314495,,-5.68528747559,-1.34422004223,135.061294556,0.0032989999745,1.0,0.0,0.0,0.0,1.0,0.0,0.0,0.0,1.0,-0.12195122242,2.5,-0.548780500889,1.0,0.0,0.0,0.0,1.0,0.0,0.0,0.0,1.0,1.30723410645,-0.244208569336,10.0700121826,1.0,0.0,0.0,0.0,1.0,0.0,0.0,0.0,1.0
1489584523631106700,230,1489584523629448421,,-5.67956352234,-1.33849668503,135.042434692,0.00272400001995,1.0,0.0,0.0,0.0,1.0,0.0,0.0,0.0,1.0,-0.12195122242,2.01219511032,-0.243902444839,1.0,0.0,0.0,0.0,1.0,0.0,0.0,0.0,1.0,1.45088620605,-0.244208569336,10.1322614258,1.0,0.0,0.0,0.0,1.0,0.0,0.0,0.0,1.0
1489584523652101876,231,1489584523650297504,,-5.67658901215,-1.33498692513,135.031280518,0.00306600006297,1.0,0.0,0.0,0.0,1.0,0.0,0.0,0.0,1.0,-0.243902444839,1.46341466904,0.426829278469,1.0,0.0,0.0,0.0,1.0,0.0,0.0,0.0,1.0,1.41736738281,-0.244208569336,10.1226846191,1.0,0.0,0.0,0.0,1.0,0.0,0.0,0.0,1.0
1489584523674401634,232,1489584523672620439,,-5.69398975372,-1.33860981464,135.028030396,0.00261599989608,1.0,0.0,0.0,0.0,1.0,0.0,0.0,0.0,1.0,-0.18292683363,1.15853655338,0.243902444839,1.0,0.0,0.0,0.0,1.0,0.0,0.0,0.0,1.0,1.23061965332,-0.330399829102,10.0317049561,1.0,0.0,0.0,0.0,1.0,0.0,0.0,0.0,1.0
1489584523699316179,233,1489584523697376182,,-5.71423435211,-1.34556281567,135.042648315,0.00463199988008,1.0,0.0,0.0,0.0,1.0,0.0,0.0,0.0,1.0,0.12195122242,0.609756112099,-0.12195122242,1.0,0.0,0.0,0.0,1.0,0.0,0.0,0.0,1.0,1.36948334961,-0.263362164351,9.95987890625,1.0,0.0,0.0,0.0,1.0,0.0,0.0,0.0,1.0
1489584523721570468,234,1489584523719845783,,-5.74512672424,-1.34736299515,135.020523071,0.00365200010128,1.0,0.0,0.0,0.0,1.0,0.0,0.0,0.0,1.0,0.12195122242,0.975609779358,-0.304878056049,1.0,0.0,0.0,0.0,1.0,0.0,0.0,0.0,1.0,1.34554133301,-0.268150604204,10.0364933594,1.0,0.0,0.0,0.0,1.0,0.0,0.0,0.0,1.0
1489584523743631997,235,1489584523741976270,,-5.77026081085,-1.36449038982,135.035385132,0.0033509999048,1.0,0.0,0.0,0.0,1.0,0.0,0.0,0.0,1.0,-0.0609756112099,1.15853655338,-0.243902444839,1.0,0.0,0.0,0.0,1.0,0.0,0.0,0.0,1.0,1.44609780273,-0.263362164351,9.84016882324,1.0,0.0,0.0,0.0,1.0,0.0,0.0,0.0,1.0
1489584523765556078,236,1489584523763570873,,-5.80112552643,-1.37124097347,135.063232422,0.0031570000574,1.0,0.0,0.0,0.0,1.0,0.0,0.0,0.0,1.0,-0.18292683363,1.70731711388,0.243902444839,1.0,0.0,0.0,0.0,1.0,0.0,0.0,0.0,1.0,1.41257897949,-0.15322890625,10.1035310059,1.0,0.0,0.0,0.0,1.0,0.0,0.0,0.0,1.0
1489584523792854474,237,1489584523790430988,,-5.81786632538,-1.36672794819,135.117111206,0.00334300007671,1.0,0.0,0.0,0.0,1.0,0.0,0.0,0.0,1.0,-0.365853667259,1.95121955872,-0.243902444839,1.0,0.0,0.0,0.0,1.0,0.0,0.0,0.0,1.0,1.45088620605,-0.134075302102,10.1178962158,1.0,0.0,0.0,0.0,1.0,0.0,0.0,0.0,1.0
1489584523811500800,238,1489584523809204866,,-5.81897306442,-1.36757671833,135.081542969,0.00297300005332,1.0,0.0,0.0,0.0,1.0,0.0,0.0,0.0,1.0,-0.12195122242,2.98780488968,-0.487804889679,1.0,0.0,0.0,0.0,1.0,0.0,0.0,0.0,1.0,1.57538469238,-0.316034619141,10.1945106689,1.0,0.0,0.0,0.0,1.0,0.0,0.0,0.0,1.0
1489584523834372379,239,1489584523831353842,,-5.80178260803,-1.37293171883,135.119171143,0.00292299990542,1.0,0.0,0.0,0.0,1.0,0.0,0.0,0.0,1.0,0.243902444839,3.29268312454,-0.12195122242,1.0,0.0,0.0,0.0,1.0,0.0,0.0,0.0,1.0,1.37427175293,-0.191536132812,10.0939541992,1.0,0.0,0.0,0.0,1.0,0.0,0.0,0.0,1.0
1489584523858621405,240,1489584523854896515,,-5.78519296646,-1.37792551517,135.144515991,0.00292599992827,1.0,0.0,0.0,0.0,1.0,0.0,0.0,0.0,1.0,0.0,3.53658556938,-0.304878056049,1.0,0.0,0.0,0.0,1.0,0.0,0.0,0.0,1.0,1.34554133301,-0.316034619141,10.0748005859,1.0,0.0,0.0,0.0,1.0,0.0,0.0,0.0,1.0
1489584523881142256,241,1489584523878586531,,-5.75950193405,-1.37734472752,135.145507812,0.00444199983031,1.0,0.0,0.0,0.0,1.0,0.0,0.0,0.0,1.0,0.487804889679,3.04878044128,-0.18292683363,1.0,0.0,0.0,0.0,1.0,0.0,0.0,0.0,1.0,1.40300217285,-0.268150604204,10.1131078125,1.0,0.0,0.0,0.0,1.0,0.0,0.0,0.0,1.0
1489584523903488993,242,1489584523901327381,,-5.71702432632,-1.37536847591,135.140579224,0.0037060000468,1.0,0.0,0.0,0.0,1.0,0.0,0.0,0.0,1.0,-0.18292683363,2.98780488968,-0.548780500889,1.0,0.0,0.0,0.0,1.0,0.0,0.0,0.0,1.0,1.4604630127,-0.177170922852,9.99339772949,1.0,0.0,0.0,0.0,1.0,0.0,0.0,0.0,1.0
1489584523925796302,243,1489584523921452976,,-5.69736433029,-1.38515043259,135.139404297,0.00390299991705,1.0,0.0,0.0,0.0,1.0,0.0,0.0,0.0,1.0,-0.12195122242,2.98780488968,-0.548780500889,1.0,0.0,0.0,0.0,1.0,0.0,0.0,0.0,1.0,1.34554133301,-0.15801730957,10.299855542,1.0,0.0,0.0,0.0,1.0,0.0,0.0,0.0,1.0
1489584523945105908,244,1489584523943617057,,-5.67531299591,-1.36715209484,135.130432129,0.00319999991916,1.0,0.0,0.0,0.0,1.0,0.0,0.0,0.0,1.0,0.0609756112099,2.43902444839,0.243902444839,1.0,0.0,0.0,0.0,1.0,0.0,0.0,0.0,1.0,1.23540805664,-0.162805712891,10.1418382324,1.0,0.0,0.0,0.0,1.0,0.0,0.0,0.0,1.0
1489584523969680975,245,1489584523967562593,,-5.67044448853,-1.36083221436,135.14704895,0.00282600009814,1.0,0.0,0.0,0.0,1.0,0.0,0.0,0.0,1.0,-0.487804889679,1.8902438879,0.18292683363,1.0,0.0,0.0,0.0,1.0,0.0,0.0,0.0,1.0,1.30244570312,-0.138863696289,10.0843773926,1.0,0.0,0.0,0.0,1.0,0.0,0.0,0.0,1.0
1489584523992461045,246,1489584523990081309,,-5.67624044418,-1.37735641003,135.174377441,0.00258699990809,1.0,0.0,0.0,0.0,1.0,0.0,0.0,0.0,1.0,-0.304878056049,2.01219511032,0.0609756112099,1.0,0.0,0.0,0.0,1.0,0.0,0.0,0.0,1.0,1.61848032227,-0.440533105469,10.2184526855,1.0,0.0,0.0,0.0,1.0,0.0,0.0,0.0,1.0
1489584524011919504,247,1489584524009172998,,-5.68368721008,-1.39004158974,135.208938599,0.00307599990629,1.0,0.0,0.0,0.0,1.0,0.0,0.0,0.0,1.0,-0.365853667259,1.8902438879,-0.731707334518,1.0,0.0,0.0,0.0,1.0,0.0,0.0,0.0,1.0,1.5322890625,-0.440533105469,9.98382092285,1.0,0.0,0.0,0.0,1.0,0.0,0.0,0.0,1.0
1489584524032274421,248,1489584524029874685,,-5.68183374405,-1.4000954628,135.233444214,0.0028689999599,1.0,0.0,0.0,0.0,1.0,0.0,0.0,0.0,1.0,-0.487804889679,2.31707310677,-0.304878056049,1.0,0.0,0.0,0.0,1.0,0.0,0.0,0.0,1.0,1.49398183594,-0.282515795898,10.1035310059,1.0,0.0,0.0,0.0,1.0,0.0,0.0,0.0,1.0
1489584524053361472,249,1489584524051117153,,-5.68399238586,-1.40421009064,135.255706787,0.00297400006093,1.0,0.0,0.0,0.0,1.0,0.0,0.0,0.0,1.0,0.12195122242,1.76829278469,-0.18292683363,1.0,0.0,0.0,0.0,1.0,0.0,0.0,0.0,1.0,1.52750065918,-0.186747729492,10.1226846191,1.0,0.0,0.0,0.0,1.0,0.0,0.0,0.0,1.0
1489584524078893413,250,1489584524076750239,,-5.68374156952,-1.40022909641,135.258499146,0.00353999994695,1.0,0.0,0.0,0.0,1.0,0.0,0.0,0.0,1.0,-0.243902444839,2.25609779358,0.0609756112099,1.0,0.0,0.0,0.0,1.0,0.0,0.0,0.0,1.0,1.40300217285,-0.239420166016,10.0364933594,1.0,0.0,0.0,0.0,1.0,0.0,0.0,0.0,1.0
1489584524102083690,251,1489584524099597600,,-5.68949127197,-1.39494228363,135.310791016,0.00487399986014,1.0,0.0,0.0,0.0,1.0,0.0,0.0,0.0,1.0,0.365853667259,2.13414645195,-0.18292683363,1.0,0.0,0.0,0.0,1.0,0.0,0.0,0.0,1.0,1.41736738281,-0.31124621582,10.0508585693,1.0,0.0,0.0,0.0,1.0,0.0,0.0,0.0,1.0
1489584524124073396,252,1489584524121944024,,-5.68866157532,-1.38961720467,135.342803955,0.00311499997042,1.0,0.0,0.0,0.0,1.0,0.0,0.0,0.0,1.0,0.18292683363,2.37804889679,-0.0609756112099,1.0,0.0,0.0,0.0,1.0,0.0,0.0,0.0,1.0,1.35990654297,-0.167594116211,10.0556469727,1.0,0.0,0.0,0.0,1.0,0.0,0.0,0.0,1.0
1489584524145443520,253,1489584524143344616,,-5.69024372101,-1.39774525166,135.329864502,0.00292099989019,1.0,0.0,0.0,0.0,1.0,0.0,0.0,0.0,1.0,0.12195122242,2.37804889679,0.12195122242,1.0,0.0,0.0,0.0,1.0,0.0,0.0,0.0,1.0,1.43173259277,-0.397437475586,10.046070166,1.0,0.0,0.0,0.0,1.0,0.0,0.0,0.0,1.0
1489584524167457236,254,1489584524165371406,,-5.68717288971,-1.41009128094,135.342391968,0.00305199995637,1.0,0.0,0.0,0.0,1.0,0.0,0.0,0.0,1.0,-0.18292683363,2.5,0.0,1.0,0.0,0.0,0.0,1.0,0.0,0.0,0.0,1.0,1.46525141602,-0.359130249023,10.0652237793,1.0,0.0,0.0,0.0,1.0,0.0,0.0,0.0,1.0
1489584524192966155,255,1489584524188915068,,-5.68808937073,-1.41895842552,135.353897095,0.00302699999884,1.0,0.0,0.0,0.0,1.0,0.0,0.0,0.0,1.0,-0.426829278469,2.62195134163,-0.487804889679,1.0,0.0,0.0,0.0,1.0,0.0,0.0,0.0,1.0,1.25935007324,-0.244208569336,10.0317049561,1.0,0.0,0.0,0.0,1.0,0.0,0.0,0.0,1.0
1489584524213878832,256,1489584524210786284,,-5.67930173874,-1.41730213165,135.412002563,0.0037060000468,1.0,0.0,0.0,0.0,1.0,0.0,0.0,0.0,1.0,0.12195122242,2.74390244484,-0.243902444839,1.0,0.0,0.0,0.0,1.0,0.0,0.0,0.0,1.0,1.41736738281,-0.191536132812,10.1562034424,1.0,0.0,0.0,0.0,1.0,0.0,0.0,0.0,1.0
1489584524235745361,257,1489584524232949219,,-5.66535902023,-1.4167124033,135.410812378,0.00263600004837,1.0,0.0,0.0,0.0,1.0,0.0,0.0,0.0,1.0,-0.243902444839,3.10975623131,-0.0609756112099,1.0,0.0,0.0,0.0,1.0,0.0,0.0,0.0,1.0,1.35990654297,-0.258573779297,10.1418382324,1.0,0.0,0.0,0.0,1.0,0.0,0.0,0.0,1.0
1489584524259018555,258,1489584524257303922,,-5.64728975296,-1.41524291039,135.440612793,0.00319000007585,1.0,0.0,0.0,0.0,1.0,0.0,0.0,0.0,1.0,-0.0609756112099,2.43902444839,-0.487804889679,1.0,0.0,0.0,0.0,1.0,0.0,0.0,0.0,1.0,1.44130939941,-0.201112939453,10.046070166,1.0,0.0,0.0,0.0,1.0,0.0,0.0,0.0,1.0
1489584524280028262,259,1489584524278416494,,-5.62229633331,-1.41108453274,135.457641602,0.00389400008135,1.0,0.0,0.0,0.0,1.0,0.0,0.0,0.0,1.0,0.0609756112099,2.5,-0.365853667259,1.0,0.0,0.0,0.0,1.0,0.0,0.0,0.0,1.0,1.25935007324,-0.191536132812,10.2232410889,1.0,0.0,0.0,0.0,1.0,0.0,0.0,0.0,1.0
1489584524302777342,260,1489584524300978334,,-5.60705757141,-1.41584336758,135.529785156,0.00399299990386,1.0,0.0,0.0,0.0,1.0,0.0,0.0,0.0,1.0,-0.243902444839,1.95121955872,-0.0609756112099,1.0,0.0,0.0,0.0,1.0,0.0,0.0,0.0,1.0,1.25456166992,-0.191536132812,10.1609918457,1.0,0.0,0.0,0.0,1.0,0.0,0.0,0.0,1.0
1489584524324457465,261,1489584524322545906,,-5.6085691452,-1.41298604012,135.569412231,0.00352500006557,1.0,0.0,0.0,0.0,1.0,0.0,0.0,0.0,1.0,0.0609756112099,1.34146344662,0.18292683363,1.0,0.0,0.0,0.0,1.0,0.0,0.0,0.0,1.0,1.2976572998,-0.253785375977,10.0891657959,1.0,0.0,0.0,0.0,1.0,0.0,0.0,0.0,1.0
1489584524345809672,262,1489584524343816498,,-5.62885189056,-1.4111880064,135.580947876,0.00276100006886,1.0,0.0,0.0,0.0,1.0,0.0,0.0,0.0,1.0,-0.0609756112099,0.914634168148,0.18292683363,1.0,0.0,0.0,0.0,1.0,0.0,0.0,0.0,1.0,1.37427175293,-0.229843359375,10.0939541992,1.0,0.0,0.0,0.0,1.0,0.0,0.0,0.0,1.0
1489584524367024744,263,1489584524365058601,,-5.65859413147,-1.40552294254,135.577362061,0.00249999994412,1.0,0.0,0.0,0.0,1.0,0.0,0.0,0.0,1.0,-0.426829278469,0.304878056049,-0.670731723309,1.0,0.0,0.0,0.0,1.0,0.0,0.0,0.0,1.0,1.24019645996,-0.244208569336,10.1945106689,1.0,0.0,0.0,0.0,1.0,0.0,0.0,0.0,1.0
1489584524394138036,264,1489584524390121532,,-5.6952662468,-1.40850234032,135.565231323,0.0025349999778,1.0,0.0,0.0,0.0,1.0,0.0,0.0,0.0,1.0,-0.487804889679,-0.487804889679,0.18292683363,1.0,0.0,0.0,0.0,1.0,0.0,0.0,0.0,1.0,1.43652099609,-0.373495458984,10.0269165527,1.0,0.0,0.0,0.0,1.0,0.0,0.0,0.0,1.0
1489584524412741914,265,1489584524409072544,,-5.75973749161,-1.41860926151,135.559387207,0.00260500004515,1.0,0.0,0.0,0.0,1.0,0.0,0.0,0.0,1.0,-0.12195122242,-1.03658533096,-0.12195122242,1.0,0.0,0.0,0.0,1.0,0.0,0.0,0.0,1.0,1.61369191895,-0.478840332031,10.0125513428,1.0,0.0,0.0,0.0,1.0,0.0,0.0,0.0,1.0
1489584524433659278,266,1489584524430278189,,-5.82162284851,-1.43394601345,135.588912964,0.00261999992654,1.0,0.0,0.0,0.0,1.0,0.0,0.0,0.0,1.0,0.0,-0.792682945728,0.0609756112099,1.0,0.0,0.0,0.0,1.0,0.0,0.0,0.0,1.0,1.58496149902,-0.244208569336,10.1562034424,1.0,0.0,0.0,0.0,1.0,0.0,0.0,0.0,1.0
1489584524453818987,267,1489584524450699356,,-5.89382076263,-1.44149374962,135.615219116,0.00283799995668,1.0,0.0,0.0,0.0,1.0,0.0,0.0,0.0,1.0,-0.18292683363,-1.09756100178,-0.365853667259,1.0,0.0,0.0,0.0,1.0,0.0,0.0,0.0,1.0,1.5562310791,-0.201112939453,10.0508585693,1.0,0.0,0.0,0.0,1.0,0.0,0.0,0.0,1.0
1489584524476963639,268,1489584524473524373,,-5.96501779556,-1.43613660336,135.646759033,0.00250299996696,1.0,0.0,0.0,0.0,1.0,0.0,0.0,0.0,1.0,0.0,-0.853658556938,-0.487804889679,1.0,0.0,0.0,0.0,1.0,0.0,0.0,0.0,1.0,1.38384855957,-0.134075302102,10.2040874756,1.0,0.0,0.0,0.0,1.0,0.0,0.0,0.0,1.0
1489584524497026212,269,1489584524495340173,,-6.03328609467,-1.44041621685,135.674194336,0.00524500012398,1.0,0.0,0.0,0.0,1.0,0.0,0.0,0.0,1.0,-0.18292683363,-0.914634168148,-0.426829278469,1.0,0.0,0.0,0.0,1.0,0.0,0.0,0.0,1.0,1.4604630127,-0.258573779297,10.0843773926,1.0,0.0,0.0,0.0,1.0,0.0,0.0,0.0,1.0
1489584524521273155,270,1489584524514651029,,-6.0925655365,-1.45348274708,135.719390869,0.00261300010607,1.0,0.0,0.0,0.0,1.0,0.0,0.0,0.0,1.0,-0.243902444839,-0.792682945728,-0.304878056049,1.0,0.0,0.0,0.0,1.0,0.0,0.0,0.0,1.0,1.47482822266,-0.349553442383,10.0748005859,1.0,0.0,0.0,0.0,1.0,0.0,0.0,0.0,1.0
1489584524539460419,271,1489584524538002348,,-6.16552877426,-1.47787845135,135.77355957,0.00291200005449,1.0,0.0,0.0,0.0,1.0,0.0,0.0,0.0,1.0,-0.243902444839,-0.670731723309,0.0,1.0,0.0,0.0,0.0,1.0,0.0,0.0,0.0,1.0,1.59932670898,-0.383072265625,10.0221281494,1.0,0.0,0.0,0.0,1.0,0.0,0.0,0.0,1.0
1489584524566840273,272,1489584524560441116,,-6.23375368118,-1.48336946964,135.806060791,0.00342700001784,1.0,0.0,0.0,0.0,1.0,0.0,0.0,0.0,1.0,0.0609756112099,0.731707334518,0.18292683363,1.0,0.0,0.0,0.0,1.0,0.0,0.0,0.0,1.0,1.85311208496,-0.191536132812,10.0748005859,1.0,0.0,0.0,0.0,1.0,0.0,0.0,0.0,1.0
1489584524589631592,273,1489584524580936553,,-6.28043317795,-1.48819160461,135.825515747,0.00438300007954,1.0,0.0,0.0,0.0,1.0,0.0,0.0,0.0,1.0,0.304878056049,2.19512200356,-0.243902444839,1.0,0.0,0.0,0.0,1.0,0.0,0.0,0.0,1.0,1.85311208496,-0.177170922852,10.1897222656,1.0,0.0,0.0,0.0,1.0,0.0,0.0,0.0,1.0
1489584524605096360,274,1489584524603551414,,-6.28347063065,-1.47618961334,135.838439941,0.00364500004798,1.0,0.0,0.0,0.0,1.0,0.0,0.0,0.0,1.0,0.0,4.14634132385,-0.426829278469,1.0,0.0,0.0,0.0,1.0,0.0,0.0,0.0,1.0,1.71424838867,-0.181959326172,10.1083194092,1.0,0.0,0.0,0.0,1.0,0.0,0.0,0.0,1.0
1489584524627220910,275,1489584524625660131,,-6.24544286728,-1.48162388802,135.911346436,0.00244499999098,1.0,0.0,0.0,0.0,1.0,0.0,0.0,0.0,1.0,0.12195122242,5.54878091812,0.12195122242,1.0,0.0,0.0,0.0,1.0,0.0,0.0,0.0,1.0,1.63284553223,-0.416591088867,10.2136642822,1.0,0.0,0.0,0.0,1.0,0.0,0.0,0.0,1.0
1489584524649385615,276,1489584524647708014,,-6.18471860886,-1.49183166027,135.966018677,0.00272400001995,1.0,0.0,0.0,0.0,1.0,0.0,0.0,0.0,1.0,-0.12195122242,6.46341466904,-0.487804889679,1.0,0.0,0.0,0.0,1.0,0.0,0.0,0.0,1.0,1.55144267578,-0.296881024126,10.2040874756,1.0,0.0,0.0,0.0,1.0,0.0,0.0,0.0,1.0
1489584524669943657,277,1489584524668432305,,-6.09206295013,-1.48951971531,135.988510132,0.00324700004421,1.0,0.0,0.0,0.0,1.0,0.0,0.0,0.0,1.0,0.12195122242,7.37804937363,-0.853658556938,1.0,0.0,0.0,0.0,1.0,0.0,0.0,0.0,1.0,1.63284553223,-0.330399829102,10.0748005859,1.0,0.0,0.0,0.0,1.0,0.0,0.0,0.0,1.0
1489584524694427474,278,1489584524690951437,,-5.98418331146,-1.4817482233,135.985946655,0.00371000007726,1.0,0.0,0.0,0.0,1.0,0.0,0.0,0.0,1.0,0.243902444839,7.43902492523,-0.365853667259,1.0,0.0,0.0,0.0,1.0,0.0,0.0,0.0,1.0,1.39342536621,-0.201112939453,10.1131078125,1.0,0.0,0.0,0.0,1.0,0.0,0.0,0.0,1.0
1489584524712253436,279,1489584524710225418,,-5.86705207825,-1.47929286957,136.032196045,0.00383899989538,1.0,0.0,0.0,0.0,1.0,0.0,0.0,0.0,1.0,0.0,6.64634132385,-0.487804889679,1.0,0.0,0.0,0.0,1.0,0.0,0.0,0.0,1.0,1.37906015625,-0.229843359375,10.0412817627,1.0,0.0,0.0,0.0,1.0,0.0,0.0,0.0,1.0
1489584524734225017,280,1489584524731840333,,-5.75030708313,-1.47012555599,136.040405273,0.00312000000849,1.0,0.0,0.0,0.0,1.0,0.0,0.0,0.0,1.0,0.0,6.46341466904,-0.426829278469,1.0,0.0,0.0,0.0,1.0,0.0,0.0,0.0,1.0,1.19710090314,-0.124498486328,9.99818613281,1.0,0.0,0.0,0.0,1.0,0.0,0.0,0.0,1.0
1489584524754598215,281,1489584524752478791,,-5.65448904037,-1.45822310448,136.065994263,0.00301199988462,1.0,0.0,0.0,0.0,1.0,0.0,0.0,0.0,1.0,0.12195122242,5.91463422775,-0.0609756112099,1.0,0.0,0.0,0.0,1.0,0.0,0.0,0.0,1.0,1.23540805664,-0.148440512063,10.0700121826,1.0,0.0,0.0,0.0,1.0,0.0,0.0,0.0,1.0
1489584524774916622,282,1489584524773305947,,-5.58134555817,-1.45436704159,136.104705811,0.00299199996516,1.0,0.0,0.0,0.0,1.0,0.0,0.0,0.0,1.0,-0.243902444839,5.18292713165,-0.18292683363,1.0,0.0,0.0,0.0,1.0,0.0,0.0,0.0,1.0,1.25935007324,-0.316034619141,10.1226846191,1.0,0.0,0.0,0.0,1.0,0.0,0.0,0.0,1.0
1489584524798855439,283,1489584524796461849,,-5.51795291901,-1.46057403088,136.137588501,0.00532099977136,1.0,0.0,0.0,0.0,1.0,0.0,0.0,0.0,1.0,-0.18292683363,3.71951246262,-0.609756112099,1.0,0.0,0.0,0.0,1.0,0.0,0.0,0.0,1.0,1.16358193377,-0.320823022461,9.98382092285,1.0,0.0,0.0,0.0,1.0,0.0,0.0,0.0,1.0
1489584524819117857,284,1489584524816882339,,-5.4855298996,-1.46517634392,136.155090332,0.00288100005127,1.0,0.0,0.0,0.0,1.0,0.0,0.0,0.0,1.0,0.0609756112099,2.31707310677,-0.365853667259,1.0,0.0,0.0,0.0,1.0,0.0,0.0,0.0,1.0,1.24498486328,-0.225054956055,10.060435376,1.0,0.0,0.0,0.0,1.0,0.0,0.0,0.0,1.0
1489584524840344230,285,1489584524838636889,,-5.46724748611,-1.45745539665,136.195022583,0.0031570000574,1.0,0.0,0.0,0.0,1.0,0.0,0.0,0.0,1.0,0.0609756112099,1.15853655338,-0.12195122242,1.0,0.0,0.0,0.0,1.0,0.0,0.0,0.0,1.0,1.19710090314,-0.181959326172,10.0364933594,1.0,0.0,0.0,0.0,1.0,0.0,0.0,0.0,1.0
1489584524862098728,286,1489584524859460295,,-5.47829246521,-1.44690728188,136.178161621,0.00311900000088,1.0,0.0,0.0,0.0,1.0,0.0,0.0,0.0,1.0,-0.0609756112099,1.03658533096,-0.0609756112099,1.0,0.0,0.0,0.0,1.0,0.0,0.0,0.0,1.0,1.40779057617,-0.129286889648,10.1131078125,1.0,0.0,0.0,0.0,1.0,0.0,0.0,0.0,1.0
1489584524883476300,287,1489584524881251720,,-5.50090932846,-1.44941699505,136.196563721,0.00469399988651,1.0,0.0,0.0,0.0,1.0,0.0,0.0,0.0,1.0,-0.304878056049,0.487804889679,-0.304878056049,1.0,0.0,0.0,0.0,1.0,0.0,0.0,0.0,1.0,1.36469494629,-0.143652099609,10.1753570557,1.0,0.0,0.0,0.0,1.0,0.0,0.0,0.0,1.0
1489584524903661009,288,1489584524901329398,,-5.53587436676,-1.46354925632,136.221618652,0.00435299985111,1.0,0.0,0.0,0.0,1.0,0.0,0.0,0.0,1.0,-0.18292683363,0.243902444839,-0.304878056049,1.0,0.0,0.0,0.0,1.0,0.0,0.0,0.0,1.0,1.38384855957,-0.229843359375,10.2232410889,1.0,0.0,0.0,0.0,1.0,0.0,0.0,0.0,1.0
1489584524928305242,289,1489584524925575402,,-5.57032775879,-1.47036802769,136.207946777,0.00489299977198,1.0,0.0,0.0,0.0,1.0,0.0,0.0,0.0,1.0,-0.609756112099,0.975609779358,0.18292683363,1.0,0.0,0.0,0.0,1.0,0.0,0.0,0.0,1.0,1.30244570312,-0.15801730957,10.1083194092,1.0,0.0,0.0,0.0,1.0,0.0,0.0,0.0,1.0
1489584524947872764,290,1489584524945059435,,-5.60764074326,-1.46439981461,136.216430664,0.0034020000603,1.0,0.0,0.0,0.0,1.0,0.0,0.0,0.0,1.0,-0.670731723309,0.853658556938,-0.0609756112099,1.0,0.0,0.0,0.0,1.0,0.0,0.0,0.0,1.0,1.41257897949,-0.263362164351,10.1131078125,1.0,0.0,0.0,0.0,1.0,0.0,0.0,0.0,1.0
1489584524974337516,291,1489584524968053411,,-5.64639425278,-1.46933090687,136.248657227,0.00273899990134,1.0,0.0,0.0,0.0,1.0,0.0,0.0,0.0,1.0,-0.426829278469,1.2195122242,-0.243902444839,1.0,0.0,0.0,0.0,1.0,0.0,0.0,0.0,1.0,1.42215578613,-0.296881024126,10.2184526855,1.0,0.0,0.0,0.0,1.0,0.0,0.0,0.0,1.0
1489584524998212271,292,1489584524996044097,,-5.67342090607,-1.46731412411,136.268081665,0.00589200016111,1.0,0.0,0.0,0.0,1.0,0.0,0.0,0.0,1.0,0.0609756112099,1.46341466904,-0.18292683363,1.0,0.0,0.0,0.0,1.0,0.0,0.0,0.0,1.0,1.47482822266,-0.162805712891,10.0412817627,1.0,0.0,0.0,0.0,1.0,0.0,0.0,0.0,1.0
1489584525018095053,293,1489584525014020945,,-5.69957733154,-1.46450233459,136.279907227,0.00316499988548,1.0,0.0,0.0,0.0,1.0,0.0,0.0,0.0,1.0,-0.243902444839,1.8292683363,-0.487804889679,1.0,0.0,0.0,0.0,1.0,0.0,0.0,0.0,1.0,1.45567460937,-0.330399829102,10.1370498291,1.0,0.0,0.0,0.0,1.0,0.0,0.0,0.0,1.0
1489584525039174344,294,1489584525037177159,,-5.7115521431,-1.46376180649,136.314559937,0.00324400002137,1.0,0.0,0.0,0.0,1.0,0.0,0.0,0.0,1.0,0.18292683363,2.01219511032,-0.304878056049,1.0,0.0,0.0,0.0,1.0,0.0,0.0,0.0,1.0,1.45567460937,-0.411802685547,10.0700121826,1.0,0.0,0.0,0.0,1.0,0.0,0.0,0.0,1.0
1489584525061099467,295,1489584525059172230,,-5.70989608765,-1.46805477142,136.304824829,0.00347499991767,1.0,0.0,0.0,0.0,1.0,0.0,0.0,0.0,1.0,0.12195122242,1.8902438879,-0.243902444839,1.0,0.0,0.0,0.0,1.0,0.0,0.0,0.0,1.0,1.44609780273,-0.3064578125,10.1083194092,1.0,0.0,0.0,0.0,1.0,0.0,0.0,0.0,1.0
1489584525083852140,296,1489584525081563133,,-5.70613336563,-1.47103381157,136.291244507,0.00449599977583,1.0,0.0,0.0,0.0,1.0,0.0,0.0,0.0,1.0,0.0609756112099,2.43902444839,-0.243902444839,1.0,0.0,0.0,0.0,1.0,0.0,0.0,0.0,1.0,1.43652099609,-0.210689746094,10.1370498291,1.0,0.0,0.0,0.0,1.0,0.0,0.0,0.0,1.0
1489584525105689346,297,1489584525103441589,,-5.69799280167,-1.4663233757,136.300338745,0.00308599998243,1.0,0.0,0.0,0.0,1.0,0.0,0.0,0.0,1.0,-0.243902444839,3.04878044128,-0.0609756112099,1.0,0.0,0.0,0.0,1.0,0.0,0.0,0.0,1.0,1.25935007324,-0.253785375977,10.0700121826,1.0,0.0,0.0,0.0,1.0,0.0,0.0,0.0,1.0
1489584525126295253,298,1489584525124569682,,-5.69098424911,-1.45987582207,136.294418335,0.00302199996077,1.0,0.0,0.0,0.0,1.0,0.0,0.0,0.0,1.0,-0.365853667259,2.62195134163,-0.18292683363,1.0,0.0,0.0,0.0,1.0,0.0,0.0,0.0,1.0,1.38863696289,-0.205901342773,10.0125513428,1.0,0.0,0.0,0.0,1.0,0.0,0.0,0.0,1.0
1489584525148166782,299,1489584525145705744,,-5.68741846085,-1.46541774273,136.308364868,0.00256399996579,1.0,0.0,0.0,0.0,1.0,0.0,0.0,0.0,1.0,-0.487804889679,2.80487799644,0.0609756112099,1.0,0.0,0.0,0.0,1.0,0.0,0.0,0.0,1.0,1.35990654297,-0.282515795898,10.1418382324,1.0,0.0,0.0,0.0,1.0,0.0,0.0,0.0,1.0
1489584525169470708,300,1489584525167152951,,-5.6819229126,-1.47110807896,136.333221436,0.00325699988753,1.0,0.0,0.0,0.0,1.0,0.0,0.0,0.0,1.0,-0.304878056049,2.74390244484,-0.0609756112099,1.0,0.0,0.0,0.0,1.0,0.0,0.0,0.0,1.0,1.38863696289,-0.253785375977,10.1274730225,1.0,0.0,0.0,0.0,1.0,0.0,0.0,0.0,1.0
1489584525193607858,301,1489584525190127759,,-5.67887163162,-1.4787825346,136.374740601,0.00331200007349,1.0,0.0,0.0,0.0,1.0,0.0,0.0,0.0,1.0,-0.426829278469,2.31707310677,-0.670731723309,1.0,0.0,0.0,0.0,1.0,0.0,0.0,0.0,1.0,1.40779057617,-0.359130249023,9.99818613281,1.0,0.0,0.0,0.0,1.0,0.0,0.0,0.0,1.0
1489584525211807622,302,1489584525209898719,,-5.6735124588,-1.48208880424,136.368804932,0.0029509998858,1.0,0.0,0.0,0.0,1.0,0.0,0.0,0.0,1.0,-0.487804889679,2.62195134163,-0.12195122242,1.0,0.0,0.0,0.0,1.0,0.0,0.0,0.0,1.0,1.63763393555,-0.421379492187,10.060435376,1.0,0.0,0.0,0.0,1.0,0.0,0.0,0.0,1.0
1489584525233123110,303,1489584525230965301,,-5.66274309158,-1.47905516624,136.383560181,0.00361100002192,1.0,0.0,0.0,0.0,1.0,0.0,0.0,0.0,1.0,0.12195122242,2.37804889679,0.0,1.0,0.0,0.0,0.0,1.0,0.0,0.0,0.0,1.0,1.40300217285,-0.272938989258,10.1418382324,1.0,0.0,0.0,0.0,1.0,0.0,0.0,0.0,1.0
1489584525258167603,304,1489584525254952088,,-5.65706682205,-1.48010647297,136.429214478,0.0030680000782,1.0,0.0,0.0,0.0,1.0,0.0,0.0,0.0,1.0,-0.426829278469,2.56097555161,-0.426829278469,1.0,0.0,0.0,0.0,1.0,0.0,0.0,0.0,1.0,1.33596452637,-0.354341845703,10.2232410889,1.0,0.0,0.0,0.0,1.0,0.0,0.0,0.0,1.0
1489584525277186585,305,1489584525274840026,,-5.6480178833,-1.47936165333,136.401733398,0.00267999991775,1.0,0.0,0.0,0.0,1.0,0.0,0.0,0.0,1.0,-0.0609756112099,2.31707310677,-0.243902444839,1.0,0.0,0.0,0.0,1.0,0.0,0.0,0.0,1.0,1.31681091309,-0.201112939453,10.0077629395,1.0,0.0,0.0,0.0,1.0,0.0,0.0,0.0,1.0
1489584525301192590,306,1489584525299012749,,-5.64288234711,-1.47974097729,136.402984619,0.00358200003393,1.0,0.0,0.0,0.0,1.0,0.0,0.0,0.0,1.0,0.12195122242,1.76829278469,0.0,1.0,0.0,0.0,0.0,1.0,0.0,0.0,0.0,1.0,1.34075292969,-0.359130249023,10.0700121826,1.0,0.0,0.0,0.0,1.0,0.0,0.0,0.0,1.0
1489584525321949329,307,1489584525319848186,,-5.64935827255,-1.48789608479,136.386810303,0.00413100002334,1.0,0.0,0.0,0.0,1.0,0.0,0.0,0.0,1.0,-0.12195122242,2.07317066193,0.0,1.0,0.0,0.0,0.0,1.0,0.0,0.0,0.0,1.0,1.52750065918,-0.244208569336,10.2136642822,1.0,0.0,0.0,0.0,1.0,0.0,0.0,0.0,1.0
1489584525343233255,308,1489584525340605186,,-5.65448379517,-1.49741339684,136.379714966,0.0038980001118,1.0,0.0,0.0,0.0,1.0,0.0,0.0,0.0,1.0,-0.243902444839,1.8902438879,-0.365853667259,1.0,0.0,0.0,0.0,1.0,0.0,0.0,0.0,1.0,1.45088620605,-0.191536132812,10.1562034424,1.0,0.0,0.0,0.0,1.0,0.0,0.0,0.0,1.0
1489584525364495566,309,1489584525361911560,,-5.65483951569,-1.49621784687,136.416244507,0.00373400002718,1.0,0.0,0.0,0.0,1.0,0.0,0.0,0.0,1.0,0.0,1.8902438879,-0.670731723309,1.0,0.0,0.0,0.0,1.0,0.0,0.0,0.0,1.0,1.38384855957,-0.167594116211,9.93593688965,1.0,0.0,0.0,0.0,1.0,0.0,0.0,0.0,1.0
1489584525384312671,310,1489584525382413820,,-5.65655708313,-1.49194145203,136.421081543,0.00336400000378,1.0,0.0,0.0,0.0,1.0,0.0,0.0,0.0,1.0,0.12195122242,2.07317066193,0.0,1.0,0.0,0.0,0.0,1.0,0.0,0.0,0.0,1.0,1.35990654297,-0.15801730957,9.96945571289,1.0,0.0,0.0,0.0,1.0,0.0,0.0,0.0,1.0
1489584525408103156,311,1489584525405522587,,-5.6577000618,-1.48472976685,136.456573486,0.00307999993674,1.0,0.0,0.0,0.0,1.0,0.0,0.0,0.0,1.0,-0.609756112099,2.37804889679,0.670731723309,1.0,0.0,0.0,0.0,1.0,0.0,0.0,0.0,1.0,1.51313544922,-0.292092584273,10.1753570557,1.0,0.0,0.0,0.0,1.0,0.0,0.0,0.0,1.0
1489584525430089320,312,1489584525427743647,,-5.66143131256,-1.48769724369,136.487319946,0.00294100004248,1.0,0.0,0.0,0.0,1.0,0.0,0.0,0.0,1.0,-0.12195122242,2.62195134163,-0.365853667259,1.0,0.0,0.0,0.0,1.0,0.0,0.0,0.0,1.0,1.40779057617,-0.253785375977,10.0748005859,1.0,0.0,0.0,0.0,1.0,0.0,0.0,0.0,1.0
1489584525450389185,313,1489584525448048876,,-5.64921426773,-1.48919570446,136.510040283,0.0028230000753,1.0,0.0,0.0,0.0,1.0,0.0,0.0,0.0,1.0,-0.0609756112099,2.98780488968,-0.365853667259,1.0,0.0,0.0,0.0,1.0,0.0,0.0,0.0,1.0,1.44130939941,-0.215478149414,10.1131078125,1.0,0.0,0.0,0.0,1.0,0.0,0.0,0.0,1.0
1489584525470312697,314,1489584525468190356,,-5.62719869614,-1.49436366558,136.514053345,0.00252999993972,1.0,0.0,0.0,0.0,1.0,0.0,0.0,0.0,1.0,-0.18292683363,2.98780488968,-0.609756112099,1.0,0.0,0.0,0.0,1.0,0.0,0.0,0.0,1.0,1.41257897949,-0.411802685547,10.0700121826,1.0,0.0,0.0,0.0,1.0,0.0,0.0,0.0,1.0
1489584525494008025,315,1489584525490804436,,-5.60949087143,-1.49785852432,136.507446289,0.00322500010952,1.0,0.0,0.0,0.0,1.0,0.0,0.0,0.0,1.0,-0.243902444839,2.80487799644,-0.304878056049,1.0,0.0,0.0,0.0,1.0,0.0,0.0,0.0,1.0,1.47482822266,-0.244208569336,10.1322614258,1.0,0.0,0.0,0.0,1.0,0.0,0.0,0.0,1.0
1489584525512194351,316,1489584525509951178,,-5.59407377243,-1.50143313408,136.5078125,0.00316699990071,1.0,0.0,0.0,0.0,1.0,0.0,0.0,0.0,1.0,-0.304878056049,2.74390244484,-0.0609756112099,1.0,0.0,0.0,0.0,1.0,0.0,0.0,0.0,1.0,1.62326872559,-0.387860668945,10.1178962158,1.0,0.0,0.0,0.0,1.0,0.0,0.0,0.0,1.0
1489584525532505102,317,1489584525530586823,,-5.58105659485,-1.49577951431,136.488632202,0.00324300001375,1.0,0.0,0.0,0.0,1.0,0.0,0.0,0.0,1.0,-0.18292683363,2.62195134163,-0.304878056049,1.0,0.0,0.0,0.0,1.0,0.0,0.0,0.0,1.0,1.40779057617,-0.124498486328,10.0556469727,1.0,0.0,0.0,0.0,1.0,0.0,0.0,0.0,1.0
1489584525556101993,318,1489584525553033664,,-5.57020616531,-1.48772060871,136.460327148,0.00294600008056,1.0,0.0,0.0,0.0,1.0,0.0,0.0,0.0,1.0,-0.243902444839,2.80487799644,-0.426829278469,1.0,0.0,0.0,0.0,1.0,0.0,0.0,0.0,1.0,1.35990654297,-0.263362164351,10.2567599121,1.0,0.0,0.0,0.0,1.0,0.0,0.0,0.0,1.0
1489584525578421959,319,1489584525574509100,,-5.55617284775,-1.48006141186,136.423202515,0.00251100002788,1.0,0.0,0.0,0.0,1.0,0.0,0.0,0.0,1.0,-0.12195122242,2.5,-0.0609756112099,1.0,0.0,0.0,0.0,1.0,0.0,0.0,0.0,1.0,1.25935007324,-0.253785375977,9.90241806641,1.0,0.0,0.0,0.0,1.0,0.0,0.0,0.0,1.0
1489584525600021822,320,1489584525597974846,,-5.54990911484,-1.48485314846,136.448532104,0.00354499998502,1.0,0.0,0.0,0.0,1.0,0.0,0.0,0.0,1.0,-0.18292683363,1.64634156227,-0.0609756112099,1.0,0.0,0.0,0.0,1.0,0.0,0.0,0.0,1.0,1.29286889648,-0.320823022461,10.1178962158,1.0,0.0,0.0,0.0,1.0,0.0,0.0,0.0,1.0
1489584525622486839,321,1489584525620398249,,-5.54900932312,-1.48631632328,136.434402466,0.00307999993674,1.0,0.0,0.0,0.0,1.0,0.0,0.0,0.0,1.0,0.0609756112099,1.09756100178,-0.243902444839,1.0,0.0,0.0,0.0,1.0,0.0,0.0,0.0,1.0,1.36948334961,-0.172382519531,10.0508585693,1.0,0.0,0.0,0.0,1.0,0.0,0.0,0.0,1.0
1489584525644508837,322,1489584525642983371,,-5.566655159,-1.4837795496,136.413543701,0.00269300001673,1.0,0.0,0.0,0.0,1.0,0.0,0.0,0.0,1.0,-0.487804889679,1.15853655338,0.243902444839,1.0,0.0,0.0,0.0,1.0,0.0,0.0,0.0,1.0,1.32638771973,-0.177170922852,10.180145459,1.0,0.0,0.0,0.0,1.0,0.0,0.0,0.0,1.0
1489584525668033385,323,1489584525666483491,,-5.59740972519,-1.48543763161,136.419815063,0.00314199994318,1.0,0.0,0.0,0.0,1.0,0.0,0.0,0.0,1.0,-0.304878056049,1.03658533096,0.487804889679,1.0,0.0,0.0,0.0,1.0,0.0,0.0,0.0,1.0,1.41257897949,-0.210689746094,9.99339772949,1.0,0.0,0.0,0.0,1.0,0.0,0.0,0.0,1.0
1489584525693655168,324,1489584525691401526,,-5.63602399826,-1.4886187315,136.43296814,0.00391100021079,1.0,0.0,0.0,0.0,1.0,0.0,0.0,0.0,1.0,0.0,1.34146344662,0.18292683363,1.0,0.0,0.0,0.0,1.0,0.0,0.0,0.0,1.0,1.35990654297,-0.172382519531,10.2040874756,1.0,0.0,0.0,0.0,1.0,0.0,0.0,0.0,1.0
1489584525713147951,325,1489584525711859255,,-5.66014623642,-1.49495232105,136.419342041,0.00309700006619,1.0,0.0,0.0,0.0,1.0,0.0,0.0,0.0,1.0,-0.18292683363,1.76829278469,-0.0609756112099,1.0,0.0,0.0,0.0,1.0,0.0,0.0,0.0,1.0,1.39342536621,-0.234631762695,10.0364933594,1.0,0.0,0.0,0.0,1.0,0.0,0.0,0.0,1.0
1489584525737134321,326,1489584525734924532,,-5.67562294006,-1.48834848404,136.364486694,0.00264799990691,1.0,0.0,0.0,0.0,1.0,0.0,0.0,0.0,1.0,0.548780500889,2.13414645195,0.12195122242,1.0,0.0,0.0,0.0,1.0,0.0,0.0,0.0,1.0,1.41257897949,-0.244208569336,10.0269165527,1.0,0.0,0.0,0.0,1.0,0.0,0.0,0.0,1.0
1489584525758265122,327,1489584525756564499,,-5.6826043129,-1.48908698559,136.36479187,0.0026469998993,1.0,0.0,0.0,0.0,1.0,0.0,0.0,0.0,1.0,-0.0609756112099,1.95121955872,-0.426829278469,1.0,0.0,0.0,0.0,1.0,0.0,0.0,0.0,1.0,1.49877023926,-0.215478149414,10.2376062988,1.0,0.0,0.0,0.0,1.0,0.0,0.0,0.0,1.0
1489584525779954776,328,1489584525778773320,,-5.68062877655,-1.49012815952,136.375579834,0.00312000000849,1.0,0.0,0.0,0.0,1.0,0.0,0.0,0.0,1.0,0.426829278469,2.62195134163,-0.12195122242,1.0,0.0,0.0,0.0,1.0,0.0,0.0,0.0,1.0,1.47482822266,-0.225054956055,9.89762966309,1.0,0.0,0.0,0.0,1.0,0.0,0.0,0.0,1.0
1489584525801908962,329,1489584525799723652,,-5.66691350937,-1.48803567886,136.296600342,0.0032389999833,1.0,0.0,0.0,0.0,1.0,0.0,0.0,0.0,1.0,0.12195122242,2.80487799644,-0.12195122242,1.0,0.0,0.0,0.0,1.0,0.0,0.0,0.0,1.0,1.4844050293,-0.215478149414,10.0221281494,1.0,0.0,0.0,0.0,1.0,0.0,0.0,0.0,1.0
1489584525821929139,330,1489584525820322996,,-5.65166282654,-1.48737049103,136.274780273,0.00317099993117,1.0,0.0,0.0,0.0,1.0,0.0,0.0,0.0,1.0,-0.18292683363,2.80487799644,-0.243902444839,1.0,0.0,0.0,0.0,1.0,0.0,0.0,0.0,1.0,1.51313544922,-0.225054956055,10.1274730225,1.0,0.0,0.0,0.0,1.0,0.0,0.0,0.0,1.0
1489584525844062126,331,1489584525842819003,,-5.63167905807,-1.48844826221,136.25050354,0.00260000000708,1.0,0.0,0.0,0.0,1.0,0.0,0.0,0.0,1.0,-0.0609756112099,3.47560977936,-0.18292683363,1.0,0.0,0.0,0.0,1.0,0.0,0.0,0.0,1.0,1.40300217285,-0.253785375977,10.1897222656,1.0,0.0,0.0,0.0,1.0,0.0,0.0,0.0,1.0
1489584525867320737,332,1489584525865604229,,-5.60739088058,-1.48160910606,136.208114624,0.00271799997427,1.0,0.0,0.0,0.0,1.0,0.0,0.0,0.0,1.0,-0.548780500889,3.04878044128,-0.487804889679,1.0,0.0,0.0,0.0,1.0,0.0,0.0,0.0,1.0,1.2497732666,-0.177170922852,9.95987890625,1.0,0.0,0.0,0.0,1.0,0.0,0.0,0.0,1.0
1489584525891109294,333,1489584525889445599,,-5.5859375,-1.47934746742,136.179855347,0.00267599988729,1.0,0.0,0.0,0.0,1.0,0.0,0.0,0.0,1.0,-0.243902444839,2.74390244484,0.0609756112099,1.0,0.0,0.0,0.0,1.0,0.0,0.0,0.0,1.0,1.23540805664,-0.191536132812,10.1562034424,1.0,0.0,0.0,0.0,1.0,0.0,0.0,0.0,1.0
1489584525909567235,334,1489584525907454842,,-5.57016515732,-1.47993314266,136.14175415,0.00249699992128,1.0,0.0,0.0,0.0,1.0,0.0,0.0,0.0,1.0,-0.365853667259,2.5,-0.304878056049,1.0,0.0,0.0,0.0,1.0,0.0,0.0,0.0,1.0,1.28329208984,-0.119710083008,10.1322614258,1.0,0.0,0.0,0.0,1.0,0.0,0.0,0.0,1.0
1489584525932365533,335,1489584525930215849,,-5.57499980927,-1.4749494791,136.149093628,0.00277199991979,1.0,0.0,0.0,0.0,1.0,0.0,0.0,0.0,1.0,0.0609756112099,2.01219511032,0.0,1.0,0.0,0.0,0.0,1.0,0.0,0.0,0.0,1.0,1.47482822266,-0.272938989258,10.3094323486,1.0,0.0,0.0,0.0,1.0,0.0,0.0,0.0,1.0
1489584525959447575,336,1489584525956244976,,-5.57822227478,-1.47128164768,136.155319214,0.00241199997254,1.0,0.0,0.0,0.0,1.0,0.0,0.0,0.0,1.0,-0.243902444839,2.13414645195,-0.18292683363,1.0,0.0,0.0,0.0,1.0,0.0,0.0,0.0,1.0,1.30723410645,-0.201112939453,10.1226846191,1.0,0.0,0.0,0.0,1.0,0.0,0.0,0.0,1.0
1489584525976004373,337,1489584525973282033,,-5.58837175369,-1.47366309166,136.174911499,0.0024600001052,1.0,0.0,0.0,0.0,1.0,0.0,0.0,0.0,1.0,-0.426829278469,1.52439022064,-0.304878056049,1.0,0.0,0.0,0.0,1.0,0.0,0.0,0.0,1.0,1.28808049316,-0.339976635742,10.1418382324,1.0,0.0,0.0,0.0,1.0,0.0,0.0,0.0,1.0
1489584526003229019,338,1489584526001026627,,-5.61612844467,-1.4747055769,136.140090942,0.00624400004745,1.0,0.0,0.0,0.0,1.0,0.0,0.0,0.0,1.0,-0.12195122242,1.09756100178,0.18292683363,1.0,0.0,0.0,0.0,1.0,0.0,0.0,0.0,1.0,1.54186586914,-0.201112939453,10.0077629395,1.0,0.0,0.0,0.0,1.0,0.0,0.0,0.0,1.0
1489584526024563674,339,1489584526022520969,,-5.64265298843,-1.47697150707,136.113616943,0.00356799992733,1.0,0.0,0.0,0.0,1.0,0.0,0.0,0.0,1.0,-0.304878056049,1.2804877758,0.243902444839,1.0,0.0,0.0,0.0,1.0,0.0,0.0,0.0,1.0,1.47961662598,-0.215478149414,10.1178962158,1.0,0.0,0.0,0.0,1.0,0.0,0.0,0.0,1.0
1489584526045710673,340,1489584526043549635,,-5.6675825119,-1.47087574005,136.110748291,0.0030310000293,1.0,0.0,0.0,0.0,1.0,0.0,0.0,0.0,1.0,-0.365853667259,1.8902438879,-0.426829278469,1.0,0.0,0.0,0.0,1.0,0.0,0.0,0.0,1.0,1.42215578613,-0.143652099609,10.285490332,1.0,0.0,0.0,0.0,1.0,0.0,0.0,0.0,1.0
1489584526067965327,341,1489584526065657153,,-5.68633031845,-1.46554982662,136.071258545,0.00248400005512,1.0,0.0,0.0,0.0,1.0,0.0,0.0,0.0,1.0,-0.487804889679,2.13414645195,-0.18292683363,1.0,0.0,0.0,0.0,1.0,0.0,0.0,0.0,1.0,1.36469494629,-0.15801730957,10.2040874756,1.0,0.0,0.0,0.0,1.0,0.0,0.0,0.0,1.0
1489584526096725335,342,1489584526095382264,,-5.69045829773,-1.46699512005,136.016647339,0.00252000009641,1.0,0.0,0.0,0.0,1.0,0.0,0.0,0.0,1.0,-0.365853667259,2.31707310677,0.0,1.0,0.0,0.0,0.0,1.0,0.0,0.0,0.0,1.0,1.49877023926,-0.296881024126,10.1514150391,1.0,0.0,0.0,0.0,1.0,0.0,0.0,0.0,1.0
1489584526108862243,343,1489584526107480527,,-5.69357633591,-1.45457971096,135.987854004,0.00261699990369,1.0,0.0,0.0,0.0,1.0,0.0,0.0,0.0,1.0,0.0,2.68292689323,-0.0609756112099,1.0,0.0,0.0,0.0,1.0,0.0,0.0,0.0,1.0,1.4844050293,-0.15801730957,10.0317049561,1.0,0.0,0.0,0.0,1.0,0.0,0.0,0.0,1.0
1489584526135135849,344,1489584526130204971,,-5.69478988647,-1.44572806358,135.951171875,0.00258599990048,1.0,0.0,0.0,0.0,1.0,0.0,0.0,0.0,1.0,0.0,2.92682933807,0.0,1.0,0.0,0.0,0.0,1.0,0.0,0.0,0.0,1.0,1.63284553223,-0.191536132812,10.0748005859,1.0,0.0,0.0,0.0,1.0,0.0,0.0,0.0,1.0
1489584526158063991,345,1489584526156332067,,-5.67893075943,-1.44222033024,135.915176392,0.00239700009115,1.0,0.0,0.0,0.0,1.0,0.0,0.0,0.0,1.0,0.0609756112099,2.92682933807,-0.487804889679,1.0,0.0,0.0,0.0,1.0,0.0,0.0,0.0,1.0,1.36469494629,-0.277727392578,10.1178962158,1.0,0.0,0.0,0.0,1.0,0.0,0.0,0.0,1.0
1489584526180767342,346,1489584526179428907,,-5.65935993195,-1.43405258656,135.890686035,0.00611399998888,1.0,0.0,0.0,0.0,1.0,0.0,0.0,0.0,1.0,0.0609756112099,3.29268312454,-0.0609756112099,1.0,0.0,0.0,0.0,1.0,0.0,0.0,0.0,1.0,1.4844050293,-0.205901342773,10.1370498291,1.0,0.0,0.0,0.0,1.0,0.0,0.0,0.0,1.0
1489584526202997933,347,1489584526200849759,,-5.63085794449,-1.4255746603,135.876876831,0.00321400002576,1.0,0.0,0.0,0.0,1.0,0.0,0.0,0.0,1.0,0.18292683363,3.23170733452,-0.670731723309,1.0,0.0,0.0,0.0,1.0,0.0,0.0,0.0,1.0,1.45567460937,-0.191536132812,10.1178962158,1.0,0.0,0.0,0.0,1.0,0.0,0.0,0.0,1.0
1489584526224590088,348,1489584526222295664,,-5.60503911972,-1.42152285576,135.856338501,0.0028919999022,1.0,0.0,0.0,0.0,1.0,0.0,0.0,0.0,1.0,-0.12195122242,3.10975623131,-0.0609756112099,1.0,0.0,0.0,0.0,1.0,0.0,0.0,0.0,1.0,1.32638771973,-0.234631762695,10.1035310059,1.0,0.0,0.0,0.0,1.0,0.0,0.0,0.0,1.0
1489584526247862344,349,1489584526244805682,,-5.58488130569,-1.42702376842,135.828430176,0.00293600000441,1.0,0.0,0.0,0.0,1.0,0.0,0.0,0.0,1.0,-0.609756112099,2.56097555161,-0.18292683363,1.0,0.0,0.0,0.0,1.0,0.0,0.0,0.0,1.0,1.23540805664,-0.253785375977,10.1897222656,1.0,0.0,0.0,0.0,1.0,0.0,0.0,0.0,1.0
1489584526269124395,350,1489584526266392941,,-5.57794857025,-1.42250370979,135.796981812,0.00274099991657,1.0,0.0,0.0,0.0,1.0,0.0,0.0,0.0,1.0,-0.365853667259,1.64634156227,0.243902444839,1.0,0.0,0.0,0.0,1.0,0.0,0.0,0.0,1.0,1.23540805664,-0.172382519531,9.96945571289,1.0,0.0,0.0,0.0,1.0,0.0,0.0,0.0,1.0
1489584526300369347,351,1489584526298590131,,-5.58629703522,-1.41488063335,135.758163452,0.00276999990456,1.0,0.0,0.0,0.0,1.0,0.0,0.0,0.0,1.0,-0.670731723309,1.46341466904,-0.12195122242,1.0,0.0,0.0,0.0,1.0,0.0,0.0,0.0,1.0,1.22583125,-0.134075302102,10.0221281494,1.0,0.0,0.0,0.0,1.0,0.0,0.0,0.0,1.0
1489584526309993707,352,1489584526308441835,,-5.59919118881,-1.42123246193,135.77293396,0.00265199993737,1.0,0.0,0.0,0.0,1.0,0.0,0.0,0.0,1.0,-0.0609756112099,1.03658533096,-0.304878056049,1.0,0.0,0.0,0.0,1.0,0.0,0.0,0.0,1.0,1.43173259277,-0.407014282227,10.1609918457,1.0,0.0,0.0,0.0,1.0,0.0,0.0,0.0,1.0
1489584526332477319,353,1489584526329879354,,-5.62665128708,-1.42897629738,135.782058716,0.00262499996461,1.0,0.0,0.0,0.0,1.0,0.0,0.0,0.0,1.0,-0.609756112099,0.609756112099,0.0,1.0,0.0,0.0,0.0,1.0,0.0,0.0,0.0,1.0,1.48919343262,-0.263362164351,10.060435376,1.0,0.0,0.0,0.0,1.0,0.0,0.0,0.0,1.0
1489584526351807133,354,1489584526350377396,,-5.66211652756,-1.42103385925,135.744857788,0.00260300002992,1.0,0.0,0.0,0.0,1.0,0.0,0.0,0.0,1.0,-0.365853667259,0.792682945728,0.304878056049,1.0,0.0,0.0,0.0,1.0,0.0,0.0,0.0,1.0,1.54186586914,-0.138863696289,10.0843773926,1.0,0.0,0.0,0.0,1.0,0.0,0.0,0.0,1.0
1489584526373903089,355,1489584526372497883,,-5.70025730133,-1.42226970196,135.732254028,0.0024389999453,1.0,0.0,0.0,0.0,1.0,0.0,0.0,0.0,1.0,-0.18292683363,1.52439022064,0.0,1.0,0.0,0.0,0.0,1.0,0.0,0.0,0.0,1.0,1.43652099609,-0.31124621582,10.0939541992,1.0,0.0,0.0,0.0,1.0,0.0,0.0,0.0,1.0
1489584526396417273,356,1489584526394580037,,-5.72214031219,-1.42215323448,135.692169189,0.00287399999797,1.0,0.0,0.0,0.0,1.0,0.0,0.0,0.0,1.0,0.18292683363,1.8292683363,-0.243902444839,1.0,0.0,0.0,0.0,1.0,0.0,0.0,0.0,1.0,1.50355864258,-0.31124621582,10.0412817627,1.0,0.0,0.0,0.0,1.0,0.0,0.0,0.0,1.0
1489584526417261929,357,1489584526415987660,,-5.73951768875,-1.4219378233,135.667358398,0.00306400004774,1.0,0.0,0.0,0.0,1.0,0.0,0.0,0.0,1.0,0.304878056049,2.13414645195,-0.304878056049,1.0,0.0,0.0,0.0,1.0,0.0,0.0,0.0,1.0,1.50355864258,-0.244208569336,10.1083194092,1.0,0.0,0.0,0.0,1.0,0.0,0.0,0.0,1.0
1489584526442993661,358,1489584526441301945,,-5.74434375763,-1.42369627953,135.635345459,0.0050180000253,1.0,0.0,0.0,0.0,1.0,0.0,0.0,0.0,1.0,0.18292683363,2.68292689323,-0.0609756112099,1.0,0.0,0.0,0.0,1.0,0.0,0.0,0.0,1.0,1.47003981934,-0.114921679688,10.2519715088,1.0,0.0,0.0,0.0,1.0,0.0,0.0,0.0,1.0
1489584526466298209,359,1489584526464718784,,-5.74032783508,-1.43305373192,135.613433838,0.00579599989578,1.0,0.0,0.0,0.0,1.0,0.0,0.0,0.0,1.0,-0.365853667259,2.98780488968,-0.243902444839,1.0,0.0,0.0,0.0,1.0,0.0,0.0,0.0,1.0,1.35032973633,-0.239420166016,10.2088758789,1.0,0.0,0.0,0.0,1.0,0.0,0.0,0.0,1.0
1489584526490860359,360,1489584526484816774,,-5.72875785828,-1.42461490631,135.615356445,0.00250900001265,1.0,0.0,0.0,0.0,1.0,0.0,0.0,0.0,1.0,-0.304878056049,3.35365867615,0.0,1.0,0.0,0.0,0.0,1.0,0.0,0.0,0.0,1.0,1.37427175293,-0.335188232422,10.0221281494,1.0,0.0,0.0,0.0,1.0,0.0,0.0,0.0,1.0
1489584526512607148,361,1489584526510050590,,-5.70792913437,-1.43211591244,135.568130493,0.00406400021166,1.0,0.0,0.0,0.0,1.0,0.0,0.0,0.0,1.0,-0.365853667259,3.10975623131,-0.365853667259,1.0,0.0,0.0,0.0,1.0,0.0,0.0,0.0,1.0,1.57538469238,-0.392649072266,10.0748005859,1.0,0.0,0.0,0.0,1.0,0.0,0.0,0.0,1.0
1489584526536376331,362,1489584526534646542,,-5.68722295761,-1.4305434227,135.537887573,0.00349700008519,1.0,0.0,0.0,0.0,1.0,0.0,0.0,0.0,1.0,-0.243902444839,3.35365867615,-0.365853667259,1.0,0.0,0.0,0.0,1.0,0.0,0.0,0.0,1.0,1.40779057617,-0.229843359375,10.1514150391,1.0,0.0,0.0,0.0,1.0,0.0,0.0,0.0,1.0
1489584526561222126,363,1489584526559541452,,-5.66115760803,-1.42883253098,135.51574707,0.00480599980801,1.0,0.0,0.0,0.0,1.0,0.0,0.0,0.0,1.0,-0.12195122242,2.56097555161,-0.243902444839,1.0,0.0,0.0,0.0,1.0,0.0,0.0,0.0,1.0,1.42215578613,-0.263362164351,9.99818613281,1.0,0.0,0.0,0.0,1.0,0.0,0.0,0.0,1.0
1489584526584359903,364,1489584526582668656,,-5.63783454895,-1.42879879475,135.539306641,0.00690700020641,1.0,0.0,0.0,0.0,1.0,0.0,0.0,0.0,1.0,0.0,2.56097555161,0.0609756112099,1.0,0.0,0.0,0.0,1.0,0.0,0.0,0.0,1.0,1.33596452637,-0.225054956055,10.0317049561,1.0,0.0,0.0,0.0,1.0,0.0,0.0,0.0,1.0
1489584526605085184,365,1489584526603736228,,-5.63056230545,-1.42420911789,135.506515503,0.0038610000629,1.0,0.0,0.0,0.0,1.0,0.0,0.0,0.0,1.0,-0.243902444839,2.13414645195,-0.0609756112099,1.0,0.0,0.0,0.0,1.0,0.0,0.0,0.0,1.0,1.40300217285,-0.248996972656,10.060435376,1.0,0.0,0.0,0.0,1.0,0.0,0.0,0.0,1.0
1489584526626018017,366,1489584526624216561,,-5.62261867523,-1.41120052338,135.473358154,0.00486399978399,1.0,0.0,0.0,0.0,1.0,0.0,0.0,0.0,1.0,-0.487804889679,2.01219511032,0.12195122242,1.0,0.0,0.0,0.0,1.0,0.0,0.0,0.0,1.0,1.23540805664,-0.0957680664062,10.0364933594,1.0,0.0,0.0,0.0,1.0,0.0,0.0,0.0,1.0
1489584526649036784,367,1489584526646971891,,-5.62093877792,-1.40548241138,135.452316284,0.00252100010403,1.0,0.0,0.0,0.0,1.0,0.0,0.0,0.0,1.0,-0.365853667259,1.76829278469,0.304878056049,1.0,0.0,0.0,0.0,1.0,0.0,0.0,0.0,1.0,1.24019645996,-0.148440512063,10.0508585693,1.0,0.0,0.0,0.0,1.0,0.0,0.0,0.0,1.0
1489584526670159460,368,1489584526668353734,,-5.63035058975,-1.40710043907,135.415588379,0.00264200009406,1.0,0.0,0.0,0.0,1.0,0.0,0.0,0.0,1.0,-0.0609756112099,1.2804877758,-0.18292683363,1.0,0.0,0.0,0.0,1.0,0.0,0.0,0.0,1.0,1.41257897949,-0.301669427446,10.2807019287,1.0,0.0,0.0,0.0,1.0,0.0,0.0,0.0,1.0
1489584526697651606,369,1489584526695452338,,-5.64754009247,-1.41383886337,135.376159668,0.00456900009885,1.0,0.0,0.0,0.0,1.0,0.0,0.0,0.0,1.0,-0.609756112099,1.34146344662,-0.12195122242,1.0,0.0,0.0,0.0,1.0,0.0,0.0,0.0,1.0,1.33596452637,-0.3064578125,10.1178962158,1.0,0.0,0.0,0.0,1.0,0.0,0.0,0.0,1.0
1489584526717904856,370,1489584526715696786,,-5.67310714722,-1.41213178635,135.356491089,0.00289499992505,1.0,0.0,0.0,0.0,1.0,0.0,0.0,0.0,1.0,-0.12195122242,1.8292683363,0.243902444839,1.0,0.0,0.0,0.0,1.0,0.0,0.0,0.0,1.0,1.4844050293,-0.296881024126,10.1466266357,1.0,0.0,0.0,0.0,1.0,0.0,0.0,0.0,1.0
1489584526739683469,371,1489584526737266129,,-5.69460439682,-1.4007512331,135.316101074,0.00546200014651,1.0,0.0,0.0,0.0,1.0,0.0,0.0,0.0,1.0,0.12195122242,1.46341466904,-0.670731723309,1.0,0.0,0.0,0.0,1.0,0.0,0.0,0.0,1.0,1.43652099609,-0.205901342773,10.0221281494,1.0,0.0,0.0,0.0,1.0,0.0,0.0,0.0,1.0
1489584526760001927,372,1489584526758393023,,-5.71122598648,-1.40701556206,135.314865112,0.00569899985567,1.0,0.0,0.0,0.0,1.0,0.0,0.0,0.0,1.0,-0.0609756112099,1.76829278469,-0.0609756112099,1.0,0.0,0.0,0.0,1.0,0.0,0.0,0.0,1.0,1.49398183594,-0.225054956055,10.0939541992,1.0,0.0,0.0,0.0,1.0,0.0,0.0,0.0,1.0
1489584526781842467,373,1489584526780012626,,-5.71846580505,-1.4045381546,135.30821228,0.00523399980739,1.0,0.0,0.0,0.0,1.0,0.0,0.0,0.0,1.0,0.18292683363,1.95121955872,0.0609756112099,1.0,0.0,0.0,0.0,1.0,0.0,0.0,0.0,1.0,1.51313544922,-0.143652099609,10.2376062988,1.0,0.0,0.0,0.0,1.0,0.0,0.0,0.0,1.0
1489584526805609670,374,1489584526802980716,,-5.71949672699,-1.39844679832,135.279937744,0.00476799998432,1.0,0.0,0.0,0.0,1.0,0.0,0.0,0.0,1.0,-0.304878056049,2.37804889679,-0.243902444839,1.0,0.0,0.0,0.0,1.0,0.0,0.0,0.0,1.0,1.40300217285,-0.201112939453,10.0939541992,1.0,0.0,0.0,0.0,1.0,0.0,0.0,0.0,1.0
1489584526826107191,375,1489584526823737090,,-5.71935272217,-1.39602184296,135.264938354,0.00475599989295,1.0,0.0,0.0,0.0,1.0,0.0,0.0,0.0,1.0,-0.243902444839,2.92682933807,-0.0609756112099,1.0,0.0,0.0,0.0,1.0,0.0,0.0,0.0,1.0,1.45567460937,-0.220266552734,10.1753570557,1.0,0.0,0.0,0.0,1.0,0.0,0.0,0.0,1.0
1489584526847989241,376,1489584526845352474,,-5.70783519745,-1.40008962154,135.270339966,0.00243599992245,1.0,0.0,0.0,0.0,1.0,0.0,0.0,0.0,1.0,-0.670731723309,2.98780488968,0.18292683363,1.0,0.0,0.0,0.0,1.0,0.0,0.0,0.0,1.0,1.38863696289,-0.292092584273,10.0556469727,1.0,0.0,0.0,0.0,1.0,0.0,0.0,0.0,1.0
1489584526870684258,377,1489584526867867336,,-5.68774652481,-1.39703047276,135.237213135,0.00265899999067,1.0,0.0,0.0,0.0,1.0,0.0,0.0,0.0,1.0,-0.365853667259,2.68292689323,-0.487804889679,1.0,0.0,0.0,0.0,1.0,0.0,0.0,0.0,1.0,1.41736738281,-0.363918652344,9.97903251953,1.0,0.0,0.0,0.0,1.0,0.0,0.0,0.0,1.0
1489584526894364743,378,1489584526891784487,,-5.67260313034,-1.39293253422,135.198944092,0.00351199996658,1.0,0.0,0.0,0.0,1.0,0.0,0.0,0.0,1.0,-0.12195122242,2.86585378647,-0.18292683363,1.0,0.0,0.0,0.0,1.0,0.0,0.0,0.0,1.0,1.35032973633,-0.119710083008,10.0652237793,1.0,0.0,0.0,0.0,1.0,0.0,0.0,0.0,1.0
1489584526917418458,379,1489584526914436900,,-5.65996265411,-1.38851881027,135.180938721,0.00254100002348,1.0,0.0,0.0,0.0,1.0,0.0,0.0,0.0,1.0,-0.12195122242,2.25609779358,-0.487804889679,1.0,0.0,0.0,0.0,1.0,0.0,0.0,0.0,1.0,1.2976572998,-0.234631762695,9.92636008301,1.0,0.0,0.0,0.0,1.0,0.0,0.0,0.0,1.0
1489584526939949465,380,1489584526937979677,,-5.64950752258,-1.38827943802,135.10987854,0.00316300010309,1.0,0.0,0.0,0.0,1.0,0.0,0.0,0.0,1.0,-0.18292683363,1.52439022064,-0.487804889679,1.0,0.0,0.0,0.0,1.0,0.0,0.0,0.0,1.0,1.25935007324,-0.277727392578,9.95509050293,1.0,0.0,0.0,0.0,1.0,0.0,0.0,0.0,1.0
1489584526961512870,381,1489584526959498758,,-5.66181373596,-1.39733791351,135.132202148,0.00333300000057,1.0,0.0,0.0,0.0,1.0,0.0,0.0,0.0,1.0,-0.18292683363,1.2195122242,-0.243902444839,1.0,0.0,0.0,0.0,1.0,0.0,0.0,0.0,1.0,1.42694418945,-0.105344873047,10.180145459,1.0,0.0,0.0,0.0,1.0,0.0,0.0,0.0,1.0
1489584526984437939,382,1489584526982500546,,-5.6864733696,-1.40252685547,135.134597778,0.00323299993761,1.0,0.0,0.0,0.0,1.0,0.0,0.0,0.0,1.0,-0.304878056049,0.731707334518,0.12195122242,1.0,0.0,0.0,0.0,1.0,0.0,0.0,0.0,1.0,1.33117612305,-0.292092584273,10.0317049561,1.0,0.0,0.0,0.0,1.0,0.0,0.0,0.0,1.0
1489584527005079262,383,1489584527002553484,,-5.72207260132,-1.40004122257,135.143753052,0.00341699994169,1.0,0.0,0.0,0.0,1.0,0.0,0.0,0.0,1.0,-0.487804889679,0.365853667259,-0.18292683363,1.0,0.0,0.0,0.0,1.0,0.0,0.0,0.0,1.0,1.34075292969,-0.201112939453,10.0269165527,1.0,0.0,0.0,0.0,1.0,0.0,0.0,0.0,1.0
1489584527026390271,384,1489584527023081265,,-5.7630405426,-1.39919447899,135.168334961,0.00267899991013,1.0,0.0,0.0,0.0,1.0,0.0,0.0,0.0,1.0,-0.426829278469,0.548780500889,0.243902444839,1.0,0.0,0.0,0.0,1.0,0.0,0.0,0.0,1.0,1.32638771973,-0.177170922852,10.1226846191,1.0,0.0,0.0,0.0,1.0,0.0,0.0,0.0,1.0
1489584527046208366,385,1489584527043664047,,-5.80269765854,-1.37380945683,135.169921875,0.00263700005598,1.0,0.0,0.0,0.0,1.0,0.0,0.0,0.0,1.0,-0.975609779358,1.2195122242,0.609756112099,1.0,0.0,0.0,0.0,1.0,0.0,0.0,0.0,1.0,1.56580788574,0.143652099609,10.2567599121,1.0,0.0,0.0,0.0,1.0,0.0,0.0,0.0,1.0
1489584527069789944,386,1489584527066738647,,-5.83360004425,-1.35201323032,135.166168213,0.00240000011399,1.0,0.0,0.0,0.0,1.0,0.0,0.0,0.0,1.0,-2.01219511032,2.25609779358,1.76829278469,1.0,0.0,0.0,0.0,1.0,0.0,0.0,0.0,1.0,1.69509477539,-0.0383072265625,10.1897222656,1.0,0.0,0.0,0.0,1.0,0.0,0.0,0.0,1.0
1489584527091491786,387,1489584527088094343,,-5.83668136597,-1.38312923908,135.192565918,0.00261699990369,1.0,0.0,0.0,0.0,1.0,0.0,0.0,0.0,1.0,-2.13414645195,6.52439069748,1.76829278469,1.0,0.0,0.0,0.0,1.0,0.0,0.0,0.0,1.0,2.04464821777,-0.0861912597656,10.1466266357,1.0,0.0,0.0,0.0,1.0,0.0,0.0,0.0,1.0
1489584527113114305,388,1489584527109373842,,-5.75509405136,-1.42750549316,135.139968872,0.00275400001556,1.0,0.0,0.0,0.0,1.0,0.0,0.0,0.0,1.0,-2.43902444839,8.04878044128,-0.975609779358,1.0,0.0,0.0,0.0,1.0,0.0,0.0,0.0,1.0,1.73340200195,-0.282515795898,10.0652237793,1.0,0.0,0.0,0.0,1.0,0.0,0.0,0.0,1.0
1489584527133628701,389,1489584527130275321,,-5.64666748047,-1.47120988369,135.040771484,0.0029579999391,1.0,0.0,0.0,0.0,1.0,0.0,0.0,0.0,1.0,-2.92682933807,10.2439022064,-0.731707334518,1.0,0.0,0.0,0.0,1.0,0.0,0.0,0.0,1.0,1.75255561523,-0.138863696289,10.3237975586,1.0,0.0,0.0,0.0,1.0,0.0,0.0,0.0,1.0
1489584527157598821,390,1489584527155058825,,-5.43097639084,-1.52988755703,134.98236084,0.00273699988611,1.0,0.0,0.0,0.0,1.0,0.0,0.0,0.0,1.0,-5.60975599289,11.2195119858,1.52439022064,1.0,0.0,0.0,0.0,1.0,0.0,0.0,0.0,1.0,0.948103857422,-0.421379492187,10.2328178955,1.0,0.0,0.0,0.0,1.0,0.0,0.0,0.0,1.0
1489584527180078891,391,1489584527177730092,,-5.28922080994,-1.58738589287,135.088973999,0.00453299982473,1.0,0.0,0.0,0.0,1.0,0.0,0.0,0.0,1.0,-3.41463422775,-6.21951246262,13.9024391174,1.0,0.0,0.0,0.0,1.0,0.0,0.0,0.0,1.0,0.61770402832,-0.560243188477,10.9079827637,1.0,0.0,0.0,0.0,1.0,0.0,0.0,0.0,1.0
1489584527199855892,392,1489584527198473238,,-5.49314403534,-1.7695697546,135.46270752,0.00990800000727,1.0,0.0,0.0,0.0,1.0,0.0,0.0,0.0,1.0,-9.51219558716,-16.2804889679,25.182926178,1.0,0.0,0.0,0.0,1.0,0.0,0.0,0.0,1.0,0.579396801758,-0.0526724365234,10.1705686523,1.0,0.0,0.0,0.0,1.0,0.0,0.0,0.0,1.0
1489584527224580281,393,1489584527222529034,,-5.94101905823,-2.08449172974,136.166946411,0.00347099988721,1.0,0.0,0.0,0.0,1.0,0.0,0.0,0.0,1.0,-10.9756097794,-25.6097564697,35.4268302917,1.0,0.0,0.0,0.0,1.0,0.0,0.0,0.0,1.0,0.852335791016,-0.373495458984,9.86411083984,1.0,0.0,0.0,0.0,1.0,0.0,0.0,0.0,1.0
1489584527246641654,394,1489584527244409157,,-6.55930757523,-2.43530678749,136.99407959,0.00240899994969,1.0,0.0,0.0,0.0,1.0,0.0,0.0,0.0,1.0,-10.4878053665,-35.3658561707,41.5853652954,1.0,0.0,0.0,0.0,1.0,0.0,0.0,0.0,1.0,0.861912597656,-0.718260498047,9.99818613281,1.0,0.0,0.0,0.0,1.0,0.0,0.0,0.0,1.0
